time,gFx,gFy,gFz,ax,ay,az,wx,wy,wz
2021-11-10 11:9:27.7720,0.291,0.963,-0.082,-0.28,-0.02,-1.82,0.01,-0.08,0.0
2021-11-10 11:9:27.7810,0.301,0.964,-0.041,-0.1,-0.07,-0.02,0.01,-0.08,0.0
2021-11-10 11:9:27.7910,0.299,0.955,-0.043,-0.08,-0.09,0.22,0.01,-0.05,-0.01
2021-11-10 11:9:27.8020,0.288,0.953,-0.052,-0.13,-0.03,-0.05,0.01,-0.05,-0.01
2021-11-10 11:9:27.8120,0.286,0.953,-0.05,-0.03,0.03,0.11,0.01,-0.03,-0.0
2021-11-10 11:9:27.8220,0.288,0.953,-0.053,0.03,0.03,0.1,0.01,-0.03,-0.0
2021-11-10 11:9:27.8310,0.292,0.953,-0.058,0.01,0.03,0.1,0.0,-0.03,-0.0
2021-11-10 11:9:27.8420,0.294,0.953,-0.058,-0.02,0.03,0.16,-0.01,-0.05,-0.0
2021-11-10 11:9:27.8510,0.298,0.955,-0.053,-0.04,0.03,0.18,-0.01,-0.05,-0.0
2021-11-10 11:9:27.8610,0.295,0.958,-0.045,-0.08,0.02,0.14,-0.01,-0.05,-0.01
2021-11-10 11:9:27.8700,0.293,0.959,-0.043,-0.08,-0.01,0.07,-0.01,-0.05,-0.01
2021-11-10 11:9:27.8800,0.292,0.958,-0.042,-0.05,-0.03,0.02,-0.01,-0.04,-0.01
2021-11-10 11:9:27.8910,0.29,0.958,-0.041,-0.04,-0.03,0.01,-0.0,-0.04,-0.01
2021-11-10 11:9:27.9000,0.291,0.958,-0.048,-0.02,-0.01,-0.01,0.0,-0.03,-0.01
2021-11-10 11:9:27.9110,0.292,0.955,-0.052,-0.02,-0.03,0.03,0.0,-0.03,-0.01
2021-11-10 11:9:27.9220,0.293,0.954,-0.054,-0.03,0.0,0.1,0.0,-0.04,-0.0
2021-11-10 11:9:27.9310,0.295,0.954,-0.056,-0.04,0.02,0.12,-0.0,-0.06,-0.0
2021-11-10 11:9:27.9410,0.296,0.957,-0.058,-0.06,0.02,0.13,-0.0,-0.06,-0.0
2021-11-10 11:9:27.9500,0.298,0.961,-0.056,-0.07,0.0,0.15,-0.0,-0.06,-0.0
2021-11-10 11:9:27.9600,0.299,0.962,-0.055,-0.08,-0.04,0.15,-0.0,-0.07,-0.0
2021-11-10 11:9:27.9700,0.299,0.96,-0.056,-0.1,-0.06,0.13,-0.0,-0.07,-0.01
2021-11-10 11:9:27.9800,0.296,0.958,-0.056,-0.1,-0.05,0.14,-0.0,-0.07,-0.01
2021-11-10 11:9:27.9900,0.294,0.956,-0.06,-0.08,-0.02,0.13,-0.01,-0.07,-0.01
2021-11-10 11:9:28.0010,0.294,0.954,-0.058,-0.06,-0.01,0.16,-0.01,-0.07,-0.01
2021-11-10 11:9:28.0110,0.292,0.954,-0.054,-0.05,0.01,0.16,-0.01,-0.07,-0.02
2021-11-10 11:9:28.0210,0.29,0.958,-0.055,-0.04,0.02,0.13,-0.01,-0.06,-0.02
2021-11-10 11:9:28.0300,0.29,0.961,-0.052,-0.02,0.0,0.11,-0.01,-0.06,-0.02
2021-11-10 11:9:28.0410,0.29,0.965,-0.05,-0.02,-0.04,0.11,-0.01,-0.04,-0.02
2021-11-10 11:9:28.0500,0.288,0.965,-0.052,-0.02,-0.07,0.07,-0.0,-0.04,-0.02
2021-11-10 11:9:28.0610,0.289,0.963,-0.052,-0.01,-0.09,0.08,0.0,-0.03,-0.01
2021-11-10 11:9:28.0700,0.29,0.959,-0.053,0.0,-0.08,0.09,0.01,-0.02,-0.01
2021-11-10 11:9:28.0800,0.291,0.955,-0.057,-0.01,-0.04,0.1,0.01,-0.02,-0.01
2021-11-10 11:9:28.0910,0.292,0.953,-0.058,-0.03,0.0,0.12,0.01,-0.02,-0.01
2021-11-10 11:9:28.1000,0.295,0.955,-0.055,-0.03,0.03,0.15,0.01,-0.03,-0.01
2021-11-10 11:9:28.1110,0.296,0.959,-0.051,-0.06,0.02,0.13,0.01,-0.04,-0.01
2021-11-10 11:9:28.1200,0.294,0.963,-0.05,-0.07,-0.02,0.08,0.0,-0.04,-0.01
2021-11-10 11:9:28.1300,0.294,0.963,-0.049,-0.06,-0.05,0.07,0.01,-0.02,-0.01
2021-11-10 11:9:28.1410,0.292,0.962,-0.05,-0.06,-0.08,0.05,0.01,-0.01,-0.01
2021-11-10 11:9:28.1500,0.29,0.957,-0.054,-0.05,-0.06,0.06,0.01,-0.01,-0.01
2021-11-10 11:9:28.1600,0.289,0.952,-0.055,-0.03,-0.03,0.08,0.0,-0.0,-0.01
2021-11-10 11:9:28.1710,0.291,0.95,-0.058,-0.01,0.03,0.11,0.0,-0.0,-0.01
2021-11-10 11:9:28.1800,0.294,0.95,-0.057,-0.03,0.06,0.13,0.0,-0.01,-0.01
2021-11-10 11:9:28.1900,0.296,0.953,-0.055,-0.05,0.06,0.14,0.0,-0.02,-0.01
2021-11-10 11:9:28.2000,0.296,0.96,-0.052,-0.08,0.04,0.11,-0.0,-0.02,-0.01
2021-11-10 11:9:28.2100,0.296,0.964,-0.051,-0.08,-0.01,0.09,-0.0,-0.03,-0.02
2021-11-10 11:9:28.2200,0.294,0.963,-0.052,-0.08,-0.07,0.07,0.0,-0.03,-0.01
2021-11-10 11:9:28.2300,0.294,0.959,-0.051,-0.07,-0.08,0.07,0.0,-0.03,-0.01
2021-11-10 11:9:28.2400,0.291,0.957,-0.051,-0.06,-0.05,0.07,-0.0,-0.03,-0.01
2021-11-10 11:9:28.2500,0.291,0.957,-0.051,-0.04,-0.01,0.06,-0.0,-0.03,-0.01
2021-11-10 11:9:28.2590,0.289,0.958,-0.051,-0.03,-0.01,0.06,-0.01,-0.04,-0.01
2021-11-10 11:9:28.2700,0.288,0.962,-0.049,-0.02,-0.02,0.07,-0.01,-0.05,-0.01
2021-11-10 11:9:28.2800,0.286,0.966,-0.047,-0.01,-0.04,0.06,-0.0,-0.06,-0.01
2021-11-10 11:9:28.2900,0.282,0.97,-0.041,0.01,-0.08,0.03,-0.01,-0.07,-0.01
2021-11-10 11:9:28.3000,0.277,0.974,-0.034,0.04,-0.13,-0.01,-0.01,-0.08,-0.01
2021-11-10 11:9:28.3090,0.274,0.974,-0.029,0.08,-0.16,-0.08,-0.01,-0.09,-0.01
2021-11-10 11:9:28.3200,0.268,0.973,-0.027,0.12,-0.18,-0.14,-0.01,-0.1,-0.02
2021-11-10 11:9:28.3300,0.26,0.973,-0.026,0.17,-0.17,-0.17,-0.01,-0.09,-0.02
2021-11-10 11:9:28.3400,0.251,0.972,-0.023,0.23,-0.16,-0.19,-0.0,-0.09,-0.02
2021-11-10 11:9:28.3510,0.242,0.972,-0.019,0.32,-0.15,-0.2,0.01,-0.06,-0.03
2021-11-10 11:9:28.3590,0.232,0.968,-0.017,0.41,-0.15,-0.25,0.0,-0.03,-0.04
2021-11-10 11:9:28.3700,0.226,0.967,-0.017,0.5,-0.13,-0.28,0.0,-0.03,-0.04
2021-11-10 11:9:28.3810,0.223,0.971,-0.017,0.57,-0.1,-0.29,0.0,0.0,-0.04
2021-11-10 11:9:28.3900,0.225,0.976,-0.021,0.61,-0.12,-0.29,-0.01,0.06,-0.04
2021-11-10 11:9:28.4000,0.228,0.978,-0.025,0.61,-0.18,-0.26,-0.01,0.06,-0.04
2021-11-10 11:9:28.4100,0.233,0.974,-0.03,0.57,-0.2,-0.22,-0.02,0.08,-0.05
2021-11-10 11:9:28.4200,0.239,0.971,-0.03,0.54,-0.19,-0.17,-0.02,0.1,-0.06
2021-11-10 11:9:28.4290,0.24,0.971,-0.034,0.46,-0.14,-0.14,-0.02,0.11,-0.06
2021-11-10 11:9:28.4400,0.243,0.971,-0.036,0.44,-0.14,-0.12,-0.03,0.1,-0.07
2021-11-10 11:9:28.4490,0.242,0.97,-0.033,0.4,-0.13,-0.06,-0.04,0.08,-0.08
2021-11-10 11:9:28.4590,0.238,0.974,-0.028,0.39,-0.12,-0.08,-0.03,0.07,-0.08
2021-11-10 11:9:28.4690,0.24,0.977,-0.028,0.41,-0.13,-0.12,-0.03,0.05,-0.08
2021-11-10 11:9:28.4800,0.244,0.976,-0.022,0.42,-0.18,-0.14,-0.03,0.02,-0.09
2021-11-10 11:9:28.4890,0.246,0.975,-0.017,0.34,-0.17,-0.23,-0.04,0.01,-0.1
2021-11-10 11:9:28.5000,0.25,0.975,-0.018,0.34,-0.17,-0.23,-0.04,0.01,-0.1
2021-11-10 11:9:28.5090,0.253,0.976,-0.016,0.29,-0.16,-0.22,-0.05,0.01,-0.1
2021-11-10 11:9:28.5200,0.26,0.977,-0.017,0.26,-0.15,-0.23,-0.06,-0.01,-0.11
2021-11-10 11:9:28.5300,0.27,0.969,-0.019,0.2,-0.18,-0.23,-0.08,-0.04,-0.13
2021-11-10 11:9:28.5400,0.27,0.955,-0.01,0.08,-0.13,-0.19,-0.11,-0.09,-0.16
2021-11-10 11:9:28.5500,0.266,0.942,-0.001,0.02,0.0,-0.22,-0.17,-0.13,-0.2
2021-11-10 11:9:28.5590,0.261,0.936,0.003,0.04,0.15,-0.32,-0.17,-0.13,-0.2
2021-11-10 11:9:28.5690,0.252,0.938,0.004,0.07,0.23,-0.35,-0.2,-0.14,-0.21
2021-11-10 11:9:28.5790,0.249,0.945,0.006,0.11,0.25,-0.37,-0.28,-0.13,-0.25
2021-11-10 11:9:28.5890,0.246,0.954,0.013,0.16,0.2,-0.34,-0.28,-0.13,-0.25
2021-11-10 11:9:28.6000,0.241,0.96,0.02,0.15,0.13,-0.38,-0.31,-0.12,-0.29
2021-11-10 11:9:28.6090,0.233,0.965,0.029,0.16,0.06,-0.41,-0.34,-0.1,-0.32
2021-11-10 11:9:28.6190,0.231,0.97,0.031,0.21,0.03,-0.48,-0.36,-0.09,-0.34
2021-11-10 11:9:28.6290,0.237,0.974,0.032,0.21,-0.02,-0.48,-0.37,-0.07,-0.36
2021-11-10 11:9:28.6390,0.252,0.974,0.026,0.16,-0.05,-0.47,-0.4,-0.06,-0.42
2021-11-10 11:9:28.6500,0.255,0.971,0.027,-0.01,-0.05,-0.39,-0.4,-0.06,-0.42
2021-11-10 11:9:28.6590,0.256,0.965,0.027,-0.13,-0.04,-0.32,-0.4,-0.05,-0.43
2021-11-10 11:9:28.6690,0.257,0.96,0.024,-0.18,0.04,-0.31,-0.4,-0.04,-0.44
2021-11-10 11:9:28.6790,0.255,0.958,0.02,-0.23,0.09,-0.25,-0.38,-0.03,-0.44
2021-11-10 11:9:28.6900,0.253,0.959,0.011,-0.26,0.14,-0.18,-0.37,-0.01,-0.42
2021-11-10 11:9:28.6990,0.262,0.965,-0.004,-0.28,0.15,-0.08,-0.36,-0.01,-0.39
2021-11-10 11:9:28.7080,0.283,0.967,-0.012,-0.33,0.12,0.07,-0.36,-0.03,-0.38
2021-11-10 11:9:28.7180,0.291,0.964,-0.008,-0.57,0.08,0.25,-0.36,-0.05,-0.36
2021-11-10 11:9:28.7290,0.301,0.964,-0.011,-0.73,0.11,0.25,-0.35,-0.08,-0.34
2021-11-10 11:9:28.7400,0.309,0.965,-0.013,-0.83,0.12,0.29,-0.32,-0.12,-0.31
2021-11-10 11:9:28.7490,0.319,0.964,-0.018,-0.95,0.12,0.35,-0.3,-0.14,-0.27
2021-11-10 11:9:28.7590,0.331,0.962,-0.02,-1.05,0.12,0.4,-0.26,-0.2,-0.2
2021-11-10 11:9:28.7690,0.339,0.963,-0.024,-1.19,0.14,0.46,-0.25,-0.22,-0.17
2021-11-10 11:9:28.7790,0.344,0.969,-0.027,-1.31,0.16,0.51,-0.25,-0.22,-0.17
2021-11-10 11:9:28.7890,0.347,0.974,-0.029,-1.38,0.11,0.57,-0.23,-0.24,-0.13
2021-11-10 11:9:28.7990,0.351,0.974,-0.034,-1.42,0.06,0.59,-0.21,-0.28,-0.1
2021-11-10 11:9:28.8080,0.357,0.967,-0.033,-1.46,0.03,0.66,-0.2,-0.33,-0.07
2021-11-10 11:9:28.8190,0.365,0.955,-0.033,-1.52,0.08,0.68,-0.2,-0.38,-0.05
2021-11-10 11:9:28.8280,0.373,0.945,-0.033,-1.58,0.18,0.68,-0.2,-0.44,-0.04
2021-11-10 11:9:28.8390,0.379,0.94,-0.03,-1.67,0.29,0.7,-0.2,-0.51,-0.03
2021-11-10 11:9:28.8480,0.386,0.94,-0.032,-1.73,0.36,0.69,-0.21,-0.58,-0.03
2021-11-10 11:9:28.8590,0.394,0.946,-0.032,-1.79,0.39,0.7,-0.2,-0.65,-0.03
2021-11-10 11:9:28.8690,0.398,0.954,-0.031,-1.88,0.34,0.71,-0.2,-0.72,-0.03
2021-11-10 11:9:28.8780,0.391,0.96,-0.028,-1.94,0.27,0.71,-0.2,-0.79,-0.04
2021-11-10 11:9:28.8890,0.378,0.962,-0.025,-1.91,0.2,0.69,-0.2,-0.86,-0.05
2021-11-10 11:9:28.8990,0.363,0.958,-0.018,-1.8,0.16,0.66,-0.2,-0.93,-0.06
2021-11-10 11:9:28.9080,0.351,0.951,-0.011,-1.65,0.18,0.61,-0.22,-0.99,-0.07
2021-11-10 11:9:28.9190,0.338,0.943,-0.006,-1.53,0.24,0.54,-0.23,-1.05,-0.08
2021-11-10 11:9:28.9280,0.326,0.94,0.006,-1.41,0.33,0.49,-0.24,-1.11,-0.08
2021-11-10 11:9:28.9390,0.317,0.938,0.019,-1.28,0.37,0.4,-0.25,-1.16,-0.08
2021-11-10 11:9:28.9480,0.308,0.942,0.03,-1.19,0.39,0.27,-0.25,-1.2,-0.07
2021-11-10 11:9:28.9580,0.299,0.954,0.038,-1.1,0.38,0.15,-0.25,-1.23,-0.07
2021-11-10 11:9:28.9680,0.29,0.968,0.046,-1.01,0.29,0.06,-0.23,-1.25,-0.06
2021-11-10 11:9:28.9780,0.284,0.982,0.054,-0.92,0.16,-0.02,-0.22,-1.27,-0.06
2021-11-10 11:9:28.9880,0.281,0.99,0.064,-0.85,0.01,-0.1,-0.2,-1.28,-0.06
2021-11-10 11:9:28.9990,0.277,0.994,0.076,-0.82,-0.08,-0.19,-0.19,-1.29,-0.07
2021-11-10 11:9:29.0080,0.274,0.991,0.089,-0.78,-0.14,-0.31,-0.18,-1.3,-0.09
2021-11-10 11:9:29.0190,0.271,0.985,0.101,-0.75,-0.14,-0.44,-0.17,-1.31,-0.1
2021-11-10 11:9:29.0290,0.269,0.979,0.109,-0.73,-0.09,-0.58,-0.16,-1.32,-0.12
2021-11-10 11:9:29.0380,0.267,0.975,0.116,-0.71,-0.02,-0.68,-0.16,-1.35,-0.13
2021-11-10 11:9:29.0480,0.264,0.975,0.12,-0.7,0.04,-0.76,-0.16,-1.37,-0.15
2021-11-10 11:9:29.0580,0.261,0.976,0.126,-0.68,0.04,-0.82,-0.16,-1.4,-0.17
2021-11-10 11:9:29.0690,0.254,0.978,0.131,-0.66,0.04,-0.89,-0.16,-1.42,-0.18
2021-11-10 11:9:29.0780,0.247,0.976,0.134,-0.62,0.02,-0.95,-0.18,-1.44,-0.21
2021-11-10 11:9:29.0880,0.242,0.971,0.139,-0.56,0.03,-1.0,-0.18,-1.44,-0.21
2021-11-10 11:9:29.0990,0.236,0.965,0.142,-0.53,0.07,-1.05,-0.19,-1.43,-0.22
2021-11-10 11:9:29.1080,0.235,0.958,0.147,-0.48,0.13,-1.09,-0.22,-1.42,-0.24
2021-11-10 11:9:29.1190,0.236,0.949,0.155,-0.48,0.2,-1.13,-0.22,-1.42,-0.24
2021-11-10 11:9:29.1290,0.235,0.943,0.161,-0.5,0.29,-1.21,-0.24,-1.41,-0.24
2021-11-10 11:9:29.1390,0.238,0.937,0.17,-0.52,0.36,-1.27,-0.25,-1.4,-0.25
2021-11-10 11:9:29.1480,0.245,0.935,0.179,-0.55,0.42,-1.35,-0.26,-1.38,-0.25
2021-11-10 11:9:29.1580,0.254,0.936,0.185,-0.62,0.47,-1.45,-0.27,-1.37,-0.26
2021-11-10 11:9:29.1680,0.26,0.94,0.192,-0.73,0.47,-1.51,-0.27,-1.36,-0.26
2021-11-10 11:9:29.1780,0.262,0.947,0.2,-0.82,0.44,-1.57,-0.27,-1.34,-0.27
2021-11-10 11:9:29.1870,0.261,0.951,0.206,-0.88,0.39,-1.65,-0.27,-1.31,-0.28
2021-11-10 11:9:29.1970,0.257,0.953,0.209,-0.9,0.34,-1.71,-0.26,-1.28,-0.29
2021-11-10 11:9:29.2080,0.252,0.954,0.211,-0.89,0.32,-1.75,-0.26,-1.24,-0.3
2021-11-10 11:9:29.2170,0.248,0.951,0.211,-0.87,0.3,-1.76,-0.25,-1.2,-0.3
2021-11-10 11:9:29.2270,0.244,0.944,0.212,-0.85,0.33,-1.76,-0.24,-1.16,-0.31
2021-11-10 11:9:29.2370,0.244,0.934,0.207,-0.84,0.37,-1.77,-0.23,-1.13,-0.32
2021-11-10 11:9:29.2480,0.246,0.928,0.204,-0.85,0.48,-1.74,-0.21,-1.09,-0.32
2021-11-10 11:9:29.2570,0.249,0.925,0.2,-0.89,0.56,-1.7,-0.2,-1.07,-0.33
2021-11-10 11:9:29.2680,0.254,0.922,0.199,-0.94,0.61,-1.65,-0.17,-1.05,-0.34
2021-11-10 11:9:29.2770,0.257,0.921,0.202,-1.01,0.64,-1.62,-0.15,-1.03,-0.35
2021-11-10 11:9:29.2870,0.258,0.922,0.199,-1.08,0.66,-1.65,-0.12,-1.01,-0.36
2021-11-10 11:9:29.2970,0.253,0.923,0.193,-1.13,0.66,-1.66,-0.09,-0.99,-0.37
2021-11-10 11:9:29.3080,0.246,0.927,0.188,-1.14,0.65,-1.6,-0.05,-0.97,-0.37
2021-11-10 11:9:29.3170,0.243,0.936,0.18,-1.09,0.56,-1.51,0.03,-0.94,-0.36
2021-11-10 11:9:29.3270,0.241,0.944,0.175,-1.09,0.56,-1.51,0.03,-0.94,-0.36
2021-11-10 11:9:29.3370,0.241,0.954,0.17,-1.1,0.49,-1.47,0.07,-0.94,-0.36
2021-11-10 11:9:29.3470,0.242,0.967,0.162,-1.12,0.4,-1.44,0.11,-0.94,-0.34
2021-11-10 11:9:29.3580,0.242,0.989,0.144,-1.16,0.29,-1.39,0.19,-1.0,-0.35
2021-11-10 11:9:29.3670,0.235,1.018,0.103,-1.21,0.13,-1.32,0.19,-1.0,-0.35
2021-11-10 11:9:29.3780,0.205,1.057,0.059,-1.18,-0.14,-1.01,0.07,-1.11,-0.28
2021-11-10 11:9:29.3870,0.179,1.091,0.05,-1.03,-0.47,-0.58,0.07,-1.11,-0.28
2021-11-10 11:9:29.3970,0.174,1.111,0.055,-0.7,-0.86,-0.34,-0.07,-1.01,-0.19
2021-11-10 11:9:29.4060,0.152,1.127,0.013,-0.64,-1.08,-0.42,-0.11,-0.84,-0.05
2021-11-10 11:9:29.4180,0.101,1.093,-0.114,-0.08,-1.19,0.7,-0.18,-0.81,0.42
2021-11-10 11:9:29.4260,0.056,1.022,-0.244,-0.08,-1.19,0.7,-0.18,-0.81,0.42
2021-11-10 11:9:29.4370,0.143,0.999,-0.244,0.57,-0.53,2.19,-0.22,-0.96,0.49
2021-11-10 11:9:29.4470,0.245,1.011,-0.241,0.3,-0.09,2.64,-0.22,-0.96,0.49
2021-11-10 11:9:29.4580,0.258,1.038,-0.233,-1.25,-0.34,2.54,-0.17,-1.13,0.24
2021-11-10 11:9:29.4670,0.232,1.089,-0.189,-1.25,-0.34,2.54,-0.17,-1.13,0.24
2021-11-10 11:9:29.4770,0.22,1.152,-0.159,-1.04,-0.75,2.2,-0.1,-1.18,0.12
2021-11-10 11:9:29.4870,0.218,1.195,-0.158,-0.81,-1.88,1.67,0.1,-1.37,-0.04
2021-11-10 11:9:29.4960,0.201,1.218,-0.151,-0.81,-1.88,1.67,0.1,-1.37,-0.04
2021-11-10 11:9:29.5070,0.161,1.23,-0.139,-0.71,-2.17,1.62,0.27,-1.45,-0.04
2021-11-10 11:9:29.5160,0.104,1.241,-0.163,-0.42,-2.31,1.43,0.45,-1.56,-0.02
2021-11-10 11:9:29.5260,0.066,1.234,-0.179,0.12,-2.43,1.42,0.61,-1.72,0.0
2021-11-10 11:9:29.5370,0.03,1.199,-0.153,0.58,-2.45,1.65,0.75,-1.8,0.03
2021-11-10 11:9:29.5470,-0.003,1.142,-0.155,0.91,-2.22,1.35,0.84,-1.83,0.1
2021-11-10 11:9:29.5570,-0.028,1.068,-0.167,1.29,-1.72,1.13,0.81,-1.82,0.21
2021-11-10 11:9:29.5660,-0.038,0.99,-0.172,1.56,-1.07,1.17,0.81,-1.82,0.21
2021-11-10 11:9:29.5770,-0.038,0.924,-0.175,1.75,-0.3,1.12,0.75,-1.84,0.22
2021-11-10 11:9:29.5860,-0.043,0.884,-0.174,1.76,0.4,1.07,0.7,-1.88,0.2
2021-11-10 11:9:29.5970,-0.05,0.867,-0.168,1.8,0.89,0.98,0.65,-1.93,0.17
2021-11-10 11:9:29.6060,-0.058,0.863,-0.164,1.87,1.13,0.85,0.54,-1.94,0.11
2021-11-10 11:9:29.6170,-0.072,0.851,-0.159,1.92,1.19,0.73,0.41,-1.93,0.06
2021-11-10 11:9:29.6260,-0.085,0.839,-0.154,2.04,1.27,0.63,0.23,-1.74,0.06
2021-11-10 11:9:29.6370,-0.095,0.841,-0.156,2.16,1.39,0.53,0.23,-1.74,0.06
2021-11-10 11:9:29.6460,-0.099,0.856,-0.169,2.26,1.43,0.48,0.18,-1.6,0.11
2021-11-10 11:9:29.6570,-0.088,0.884,-0.186,2.33,1.32,0.53,0.17,-1.45,0.17
2021-11-10 11:9:29.6670,-0.069,0.914,-0.199,2.28,1.09,0.65,0.19,-1.3,0.21
2021-11-10 11:9:29.6770,-0.043,0.945,-0.198,2.14,0.78,0.78,0.21,-1.15,0.24
2021-11-10 11:9:29.6870,-0.012,0.957,-0.193,1.92,0.47,0.77,0.24,-1.02,0.27
2021-11-10 11:9:29.6970,0.031,0.966,-0.182,1.66,0.27,0.7,0.26,-0.9,0.28
2021-11-10 11:9:29.7060,0.076,0.965,-0.174,1.29,0.17,0.57,0.27,-0.82,0.27
2021-11-10 11:9:29.7170,0.113,0.962,-0.17,0.85,0.14,0.43,0.27,-0.76,0.26
2021-11-10 11:9:29.7270,0.137,0.963,-0.162,0.47,0.17,0.35,0.26,-0.72,0.22
2021-11-10 11:9:29.7370,0.139,0.958,-0.151,0.19,0.15,0.26,0.22,-0.7,0.16
2021-11-10 11:9:29.7460,0.118,0.938,-0.134,0.08,0.16,0.14,0.18,-0.68,0.08
2021-11-10 11:9:29.7570,0.09,0.925,-0.123,0.22,0.3,-0.04,0.17,-0.62,0.03
2021-11-10 11:9:29.7660,0.067,0.929,-0.126,0.47,0.49,-0.21,0.18,-0.53,0.01
2021-11-10 11:9:29.7770,0.058,0.947,-0.146,0.73,0.51,-0.26,0.19,-0.42,-0.0
2021-11-10 11:9:29.7870,0.061,0.973,-0.177,0.86,0.38,-0.15,0.2,-0.33,-0.01
2021-11-10 11:9:29.7960,0.072,0.99,-0.2,0.87,0.13,0.1,0.21,-0.26,-0.03
2021-11-10 11:9:29.8070,0.083,0.994,-0.209,0.77,-0.09,0.36,0.19,-0.19,-0.04
2021-11-10 11:9:29.8160,0.092,0.988,-0.215,0.65,-0.17,0.47,0.15,-0.13,-0.06
2021-11-10 11:9:29.8260,0.098,0.977,-0.218,0.56,-0.15,0.52,0.11,-0.09,-0.09
2021-11-10 11:9:29.8360,0.106,0.964,-0.213,0.47,-0.06,0.56,0.08,-0.07,-0.12
2021-11-10 11:9:29.8460,0.11,0.951,-0.207,0.39,0.07,0.52,0.08,-0.05,-0.15
2021-11-10 11:9:29.8560,0.106,0.946,-0.21,0.31,0.2,0.46,0.1,-0.01,-0.18
2021-11-10 11:9:29.8660,0.099,0.956,-0.224,0.3,0.3,0.43,0.12,0.04,-0.2
2021-11-10 11:9:29.8760,0.086,0.969,-0.243,0.34,0.24,0.52,0.13,0.1,-0.21
2021-11-10 11:9:29.8860,0.069,0.981,-0.26,0.43,0.12,0.69,0.15,0.15,-0.21
2021-11-10 11:9:29.8960,0.055,0.988,-0.274,0.57,0.0,0.86,0.16,0.21,-0.19
2021-11-10 11:9:29.9070,0.049,0.988,-0.288,0.71,-0.09,0.99,0.17,0.26,-0.17
2021-11-10 11:9:29.9160,0.05,0.975,-0.298,0.8,-0.13,1.11,0.17,0.31,-0.15
2021-11-10 11:9:29.9270,0.06,0.965,-0.304,0.81,-0.05,1.21,0.16,0.34,-0.13
2021-11-10 11:9:29.9360,0.073,0.95,-0.313,0.73,0.07,1.27,0.14,0.36,-0.13
2021-11-10 11:9:29.9460,0.089,0.934,-0.317,0.6,0.2,1.34,0.14,0.36,-0.13
2021-11-10 11:9:29.9560,0.107,0.915,-0.322,0.46,0.35,1.4,0.07,0.32,-0.16
2021-11-10 11:9:29.9660,0.122,0.894,-0.324,0.27,0.52,1.43,0.07,0.32,-0.16
2021-11-10 11:9:29.9760,0.128,0.874,-0.322,0.1,0.72,1.47,0.02,0.29,-0.18
2021-11-10 11:9:29.9850,0.125,0.856,-0.324,-0.01,0.93,1.46,-0.03,0.26,-0.2
2021-11-10 11:9:29.9960,0.113,0.841,-0.324,-0.02,1.12,1.48,-0.07,0.25,-0.21
2021-11-10 11:9:30.0060,0.098,0.832,-0.324,0.04,1.29,1.49,-0.1,0.24,-0.22
2021-11-10 11:9:30.0160,0.079,0.83,-0.322,0.17,1.4,1.52,-0.12,0.25,-0.23
2021-11-10 11:9:30.0250,0.061,0.832,-0.32,0.33,1.45,1.51,-0.15,0.27,-0.23
2021-11-10 11:9:30.0360,0.048,0.835,-0.317,0.49,1.45,1.51,-0.19,0.32,-0.22
2021-11-10 11:9:30.0450,0.04,0.834,-0.321,0.63,1.42,1.51,-0.24,0.37,-0.21
2021-11-10 11:9:30.0550,0.038,0.829,-0.322,0.72,1.43,1.55,-0.33,0.49,-0.17
2021-11-10 11:9:30.0660,0.043,0.824,-0.324,0.75,1.47,1.62,-0.33,0.49,-0.17
2021-11-10 11:9:30.0750,0.051,0.818,-0.331,0.72,1.52,1.67,-0.36,0.55,-0.14
2021-11-10 11:9:30.0850,0.06,0.815,-0.345,0.64,1.59,1.76,-0.41,0.62,-0.08
2021-11-10 11:9:30.0960,0.071,0.818,-0.355,0.56,1.64,1.92,-0.41,0.62,-0.08
2021-11-10 11:9:30.1060,0.08,0.824,-0.362,0.46,1.64,2.1,-0.43,0.66,-0.04
2021-11-10 11:9:30.1160,0.092,0.833,-0.367,0.38,1.59,2.21,-0.46,0.68,-0.01
2021-11-10 11:9:30.1250,0.102,0.841,-0.365,0.27,1.52,2.34,-0.48,0.67,0.02
2021-11-10 11:9:30.1360,0.115,0.846,-0.352,0.18,1.45,2.39,-0.51,0.66,0.04
2021-11-10 11:9:30.1450,0.133,0.845,-0.341,0.08,1.38,2.37,-0.55,0.66,0.05
2021-11-10 11:9:30.1550,0.154,0.851,-0.345,-0.06,1.38,2.29,-0.57,0.63,0.04
2021-11-10 11:9:30.1650,0.174,0.874,-0.346,-0.25,1.38,2.34,-0.57,0.58,0.01
2021-11-10 11:9:30.1750,0.185,0.911,-0.329,-0.46,1.22,2.45,-0.55,0.52,-0.04
2021-11-10 11:9:30.1860,0.184,0.954,-0.304,-0.61,0.9,2.4,-0.53,0.48,-0.09
2021-11-10 11:9:30.1950,0.171,0.999,-0.284,-0.65,0.5,2.23,-0.49,0.47,-0.12
2021-11-10 11:9:30.2060,0.157,1.046,-0.289,-0.56,0.07,2.04,-0.45,0.5,-0.14
2021-11-10 11:9:30.2150,0.154,1.079,-0.316,-0.42,-0.38,2.04,-0.3,0.6,-0.13
2021-11-10 11:9:30.2250,0.159,1.088,-0.361,-0.36,-0.78,2.27,-0.2,0.67,-0.08
2021-11-10 11:9:30.2360,0.177,1.073,-0.43,-0.38,-0.95,2.67,-0.2,0.67,-0.08
2021-11-10 11:9:30.2450,0.197,1.039,-0.51,-0.51,-0.89,3.29,-0.11,0.72,-0.02
2021-11-10 11:9:30.2550,0.172,1.04,-0.514,-0.74,-0.6,4.05,0.13,0.64,0.05
2021-11-10 11:9:30.2650,0.156,1.112,-0.327,-0.65,-0.4,4.61,0.13,0.64,0.05
2021-11-10 11:9:30.2760,0.175,1.24,-0.174,-0.37,-0.85,3.38,0.07,0.63,-0.02
2021-11-10 11:9:30.2850,0.168,1.371,-0.222,-0.47,-1.93,1.4,0.09,0.5,-0.09
2021-11-10 11:9:30.2950,0.142,1.471,-0.256,-0.56,-3.3,1.18,0.22,0.29,-0.12
2021-11-10 11:9:30.3050,0.095,1.625,-0.109,-0.35,-4.35,1.92,0.37,0.21,-0.18
2021-11-10 11:9:30.3160,0.046,1.838,0.015,-0.01,-5.55,0.98,0.45,0.36,-0.24
2021-11-10 11:9:30.3260,0.048,1.966,0.098,0.52,-7.54,-0.56,0.33,0.66,-0.34
2021-11-10 11:9:30.3360,0.053,1.896,0.169,0.65,-9.29,-1.39,0.15,0.98,-0.48
2021-11-10 11:9:30.3450,0.019,1.636,0.101,0.49,-9.38,-2.29,0.15,1.05,-0.57
2021-11-10 11:9:30.3550,-0.095,1.284,0.075,0.6,-7.47,-2.12,0.66,1.0,-0.34
2021-11-10 11:9:30.3650,-0.181,1.02,0.033,1.41,-4.14,-1.56,0.66,1.0,-0.34
2021-11-10 11:9:30.3760,-0.179,0.813,-0.083,2.52,-1.14,-1.53,0.79,0.91,-0.17
2021-11-10 11:9:30.3850,-0.152,0.643,-0.119,2.77,1.0,-0.55,0.75,0.82,0.01
2021-11-10 11:9:30.3950,-0.111,0.524,-0.081,2.56,2.83,0.13,0.61,0.78,0.2
2021-11-10 11:9:30.4050,-0.058,0.439,-0.027,2.27,4.18,-0.09,0.41,0.75,0.35
2021-11-10 11:9:30.4150,-0.02,0.384,0.026,1.81,5.09,-0.62,0.18,0.68,0.47
2021-11-10 11:9:30.4250,0.019,0.403,0.078,1.44,5.78,-1.14,-0.09,0.57,0.54
2021-11-10 11:9:30.4350,0.052,0.477,0.116,1.13,5.88,-1.62,-0.36,0.42,0.51
2021-11-10 11:9:30.4450,0.073,0.604,0.152,0.81,5.32,-2.01,-0.57,0.25,0.42
2021-11-10 11:9:30.4550,0.091,0.794,0.169,0.6,4.29,-2.28,-0.68,0.1,0.26
2021-11-10 11:9:30.4640,0.107,1.022,0.178,0.44,2.67,-2.49,-0.64,-0.01,0.09
2021-11-10 11:9:30.4740,0.093,1.224,0.196,0.26,0.51,-2.51,-0.49,-0.0,-0.04
2021-11-10 11:9:30.4840,0.049,1.334,0.205,0.25,-1.65,-2.64,-0.33,0.16,-0.07
2021-11-10 11:9:30.4950,-0.019,1.301,0.213,0.59,-3.13,-2.72,-0.14,0.87,0.19
2021-11-10 11:9:30.5040,-0.081,1.161,0.196,1.19,-3.37,-2.79,-0.14,0.87,0.19
2021-11-10 11:9:30.5150,-0.106,1.03,0.162,1.93,-2.26,-2.71,-0.02,1.23,0.36
2021-11-10 11:9:30.5240,-0.109,0.94,0.119,2.36,-0.86,-2.4,0.08,1.5,0.48
2021-11-10 11:9:30.5360,-0.08,0.897,0.093,2.51,0.17,-1.99,0.14,1.66,0.54
2021-11-10 11:9:30.5450,-0.024,0.907,0.076,2.43,0.78,-1.64,0.18,1.73,0.52
2021-11-10 11:9:30.5550,0.041,0.922,0.062,2.01,0.84,-1.46,0.21,1.72,0.42
2021-11-10 11:9:30.5650,0.091,0.922,0.05,1.43,0.65,-1.3,0.21,1.66,0.3
2021-11-10 11:9:30.5740,0.126,0.916,0.038,0.9,0.58,-1.18,0.19,1.61,0.21
2021-11-10 11:9:30.5860,0.162,0.919,0.026,0.54,0.64,-1.05,0.15,1.58,0.16
2021-11-10 11:9:30.5950,0.198,0.94,0.016,0.24,0.66,-0.91,0.1,1.58,0.14
2021-11-10 11:9:30.6050,0.234,0.969,0.015,-0.11,0.51,-0.77,0.06,1.59,0.14
2021-11-10 11:9:30.6140,0.27,0.985,0.018,-0.42,0.23,-0.71,0.03,1.6,0.14
2021-11-10 11:9:30.6240,0.297,0.979,0.011,-0.76,0.01,-0.71,0.02,1.59,0.18
2021-11-10 11:9:30.6340,0.316,0.956,-0.009,-1.05,-0.03,-0.67,0.02,1.59,0.18
2021-11-10 11:9:30.6440,0.327,0.93,-0.031,-1.22,0.16,-0.48,0.01,1.56,0.2
2021-11-10 11:9:30.6550,0.332,0.908,-0.046,-1.34,0.41,-0.23,0.01,1.51,0.15
2021-11-10 11:9:30.6650,0.331,0.898,-0.058,-1.38,0.64,-0.03,0.01,1.45,0.15
2021-11-10 11:9:30.6740,0.329,0.898,-0.074,-1.37,0.78,0.12,-0.02,1.38,0.08
2021-11-10 11:9:30.6840,0.326,0.902,-0.086,-1.34,0.82,0.29,-0.05,1.32,0.02
2021-11-10 11:9:30.6950,0.331,0.907,-0.097,-1.32,0.78,0.47,-0.08,1.26,-0.02
2021-11-10 11:9:30.7040,0.338,0.91,-0.106,-1.33,0.74,0.6,-0.1,1.19,-0.06
2021-11-10 11:9:30.7150,0.342,0.903,-0.112,-1.41,0.69,0.73,-0.11,1.1,-0.11
2021-11-10 11:9:30.7240,0.338,0.891,-0.112,-1.47,0.73,0.83,-0.11,1.02,-0.2
2021-11-10 11:9:30.7350,0.336,0.879,-0.125,-1.48,0.83,0.88,-0.11,1.02,-0.2
2021-11-10 11:9:30.7430,0.335,0.867,-0.146,-1.46,0.96,0.97,-0.12,0.98,-0.26
2021-11-10 11:9:30.7540,0.33,0.856,-0.152,-1.47,1.08,1.21,-0.12,0.93,-0.3
2021-11-10 11:9:30.7640,0.325,0.853,-0.153,-1.48,1.2,1.35,-0.1,0.9,-0.34
2021-11-10 11:9:30.7740,0.323,0.857,-0.163,-1.44,1.27,1.38,-0.06,0.85,-0.36
2021-11-10 11:9:30.7830,0.328,0.865,-0.173,-1.45,1.26,1.45,-0.03,0.81,-0.38
2021-11-10 11:9:30.7940,0.328,0.876,-0.174,-1.51,1.2,1.59,0.02,0.76,-0.39
2021-11-10 11:9:30.8030,0.324,0.889,-0.167,-1.57,1.11,1.64,0.05,0.73,-0.4
2021-11-10 11:9:30.8140,0.318,0.902,-0.147,-1.58,1.0,1.61,0.07,0.7,-0.4
2021-11-10 11:9:30.8240,0.315,0.914,-0.124,-1.57,0.87,1.46,0.05,0.68,-0.4
2021-11-10 11:9:30.8330,0.321,0.93,-0.108,-1.55,0.76,1.24,0.05,0.68,-0.4
2021-11-10 11:9:30.8440,0.332,0.951,-0.09,-1.63,0.64,1.06,0.02,0.66,-0.39
2021-11-10 11:9:30.8540,0.364,0.964,-0.074,-1.73,0.44,0.93,-0.0,0.66,-0.37
2021-11-10 11:9:30.8650,0.396,0.966,-0.071,-2.0,0.28,0.73,-0.03,0.64,-0.34
2021-11-10 11:9:30.8750,0.42,0.956,-0.081,-2.38,0.22,0.69,-0.06,0.61,-0.3
2021-11-10 11:9:30.8830,0.446,0.946,-0.106,-2.65,0.28,0.73,-0.1,0.53,-0.27
2021-11-10 11:9:30.8940,0.458,0.939,-0.137,-2.93,0.39,0.96,-0.14,0.44,-0.25
2021-11-10 11:9:30.9050,0.44,0.937,-0.164,-3.15,0.48,1.27,-0.17,0.38,-0.23
2021-11-10 11:9:30.9130,0.411,0.953,-0.182,-3.1,0.53,1.58,-0.19,0.33,-0.22
2021-11-10 11:9:30.9240,0.374,0.995,-0.173,-2.85,0.45,1.83,-0.22,0.32,-0.21
2021-11-10 11:9:30.9350,0.325,1.062,-0.154,-2.55,0.14,1.88,-0.3,0.34,-0.2
2021-11-10 11:9:30.9440,0.279,1.152,-0.118,-2.11,-0.42,1.74,-0.36,0.4,-0.18
2021-11-10 11:9:30.9540,0.229,1.267,-0.063,-1.66,-1.23,1.51,-0.35,0.45,-0.15
2021-11-10 11:9:30.9640,0.102,1.412,0.023,-1.25,-2.24,1.08,-0.27,0.48,-0.08
2021-11-10 11:9:30.9740,-0.043,1.535,0.114,-0.35,-3.58,0.37,-0.2,0.47,0.1
2021-11-10 11:9:30.9830,-0.059,1.57,0.185,1.24,-4.96,-0.51,-0.15,0.44,0.31
2021-11-10 11:9:30.9940,-0.025,1.525,0.209,1.95,-5.68,-1.3,0.0,0.38,0.47
2021-11-10 11:9:31.0040,0.007,1.444,0.221,1.7,-5.48,-1.73,0.2,0.25,0.61
2021-11-10 11:9:31.0130,0.057,1.353,0.259,1.48,-4.79,-1.82,0.34,0.19,0.71
2021-11-10 11:9:31.0240,0.074,1.292,0.286,1.1,-3.89,-2.17,0.46,0.21,0.73
2021-11-10 11:9:31.0330,0.048,1.239,0.308,0.83,-3.19,-2.55,0.58,0.23,0.69
2021-11-10 11:9:31.0440,0.002,1.177,0.317,1.02,-2.69,-2.82,0.71,0.26,0.63
2021-11-10 11:9:31.0540,-0.041,1.106,0.303,1.48,-2.13,-3.07,1.03,0.4,0.5
2021-11-10 11:9:31.0630,-0.084,1.035,0.263,1.97,-1.47,-3.09,1.03,0.4,0.5
2021-11-10 11:9:31.0730,-0.121,0.992,0.199,2.87,-0.23,-2.47,1.27,0.74,0.5
2021-11-10 11:9:31.0830,-0.15,0.976,0.108,2.87,-0.23,-2.47,1.27,0.74,0.5
2021-11-10 11:9:31.0930,-0.146,0.977,0.001,3.27,0.01,-1.79,1.31,0.92,0.54
2021-11-10 11:9:31.1030,-0.119,0.976,-0.076,3.42,0.02,-0.86,1.31,1.09,0.57
2021-11-10 11:9:31.1130,-0.068,0.971,-0.108,3.29,0.0,-0.05,1.27,1.24,0.59
2021-11-10 11:9:31.1230,0.008,0.951,-0.129,2.95,0.01,0.31,1.15,1.25,0.56
2021-11-10 11:9:31.1340,0.094,0.914,-0.161,2.35,0.12,0.43,1.15,1.25,0.56
2021-11-10 11:9:31.1430,0.189,0.869,-0.195,1.59,0.4,0.63,1.03,1.07,0.49
2021-11-10 11:9:31.1530,0.286,0.821,-0.231,0.74,0.81,0.89,0.85,0.8,0.38
2021-11-10 11:9:31.1630,0.378,0.781,-0.244,-0.18,1.26,1.21,0.67,0.48,0.27
2021-11-10 11:9:31.1730,0.453,0.765,-0.249,-1.09,1.69,1.38,0.53,0.11,0.14
2021-11-10 11:9:31.1840,0.499,0.777,-0.247,-1.9,1.94,1.38,0.43,-0.26,0.02
2021-11-10 11:9:31.1930,0.507,0.811,-0.238,-2.48,1.92,1.35,0.36,-0.58,-0.1
2021-11-10 11:9:31.2030,0.477,0.852,-0.223,-2.72,1.65,1.24,0.3,-0.81,-0.18
2021-11-10 11:9:31.2140,0.421,0.882,-0.215,-2.59,1.27,1.06,0.26,-0.95,-0.23
2021-11-10 11:9:31.2220,0.351,0.894,-0.216,-2.16,0.9,0.91,0.22,-1.04,-0.27
2021-11-10 11:9:31.2330,0.271,0.89,-0.212,-1.55,0.74,0.83,0.19,-1.12,-0.29
2021-11-10 11:9:31.2430,0.182,0.88,-0.188,-0.85,0.72,0.82,0.17,-1.13,-0.29
2021-11-10 11:9:31.2520,0.111,0.879,-0.189,-0.03,0.82,0.58,0.16,-1.06,-0.26
2021-11-10 11:9:31.2630,0.072,0.892,-0.205,0.74,0.88,0.42,0.15,-1.0,-0.22
2021-11-10 11:9:31.2730,0.032,0.891,-0.191,1.17,0.79,0.58,0.15,-0.88,-0.18
2021-11-10 11:9:31.2820,0.028,0.886,-0.199,1.55,0.72,0.49,0.18,-0.71,-0.11
2021-11-10 11:9:31.2930,0.045,0.889,-0.216,1.74,0.8,0.41,0.19,-0.55,-0.07
2021-11-10 11:9:31.3020,0.065,0.878,-0.221,1.6,0.77,0.57,0.18,-0.42,-0.04
2021-11-10 11:9:31.3130,0.101,0.862,-0.225,1.4,0.82,0.62,0.15,-0.36,-0.01
2021-11-10 11:9:31.3220,0.135,0.838,-0.225,1.11,0.97,0.65,0.13,-0.32,-0.01
2021-11-10 11:9:31.3330,0.166,0.805,-0.229,0.74,1.15,0.65,0.1,-0.31,0.0
2021-11-10 11:9:31.3440,0.198,0.776,-0.24,0.43,1.47,0.65,0.07,-0.31,0.01
2021-11-10 11:9:31.3530,0.228,0.754,-0.253,0.12,1.76,0.72,0.03,-0.33,-0.0
2021-11-10 11:9:31.3630,0.248,0.738,-0.269,-0.2,2.0,0.84,-0.0,-0.38,-0.02
2021-11-10 11:9:31.3730,0.258,0.733,-0.279,-0.44,2.19,0.98,-0.04,-0.41,-0.03
2021-11-10 11:9:31.3830,0.265,0.737,-0.283,-0.58,2.29,1.11,-0.08,-0.47,-0.03
2021-11-10 11:9:31.3930,0.265,0.742,-0.284,-0.66,2.27,1.16,-0.11,-0.53,-0.03
2021-11-10 11:9:31.4030,0.256,0.736,-0.283,-0.72,2.22,1.19,-0.14,-0.59,-0.02
2021-11-10 11:9:31.4130,0.245,0.73,-0.284,-0.66,2.24,1.18,-0.16,-0.63,-0.02
2021-11-10 11:9:31.4230,0.236,0.738,-0.284,-0.56,2.32,1.2,-0.19,-0.65,-0.02
2021-11-10 11:9:31.4330,0.225,0.751,-0.291,-0.48,2.29,1.19,-0.23,-0.65,-0.02
2021-11-10 11:9:31.4430,0.212,0.771,-0.295,-0.4,2.19,1.25,-0.25,-0.65,-0.03
2021-11-10 11:9:31.4530,0.199,0.793,-0.294,-0.29,2.02,1.32,-0.25,-0.63,-0.04
2021-11-10 11:9:31.4620,0.189,0.816,-0.29,-0.17,1.81,1.34,-0.26,-0.62,-0.04
2021-11-10 11:9:31.4720,0.192,0.838,-0.271,-0.07,1.59,1.34,-0.29,-0.6,-0.05
2021-11-10 11:9:31.4820,0.205,0.863,-0.246,-0.05,1.38,1.22,-0.31,-0.58,-0.04
2021-11-10 11:9:31.4930,0.219,0.902,-0.234,-0.16,1.17,1.01,-0.33,-0.56,-0.04
2021-11-10 11:9:31.5020,0.228,0.951,-0.231,-0.32,0.84,0.84,-0.36,-0.61,-0.04
2021-11-10 11:9:31.5130,0.229,1.012,-0.219,-0.44,0.4,0.83,-0.33,-0.68,-0.04
2021-11-10 11:9:31.5220,0.215,1.076,-0.218,-0.5,-0.16,0.76,-0.19,-0.68,-0.03
2021-11-10 11:9:31.5330,0.197,1.135,-0.236,-0.42,-0.78,0.7,-0.19,-0.68,-0.03
2021-11-10 11:9:31.5420,0.185,1.187,-0.283,-0.26,-1.38,0.8,-0.11,-0.59,-0.04
2021-11-10 11:9:31.5530,0.196,1.223,-0.354,-0.12,-1.93,1.14,-0.02,-0.47,-0.05
2021-11-10 11:9:31.5630,0.234,1.236,-0.43,-0.13,-2.33,1.75,0.11,-0.33,-0.05
2021-11-10 11:9:31.5720,0.28,1.201,-0.512,-0.42,-2.57,2.47,0.26,-0.21,-0.03
2021-11-10 11:9:31.5820,0.305,1.171,-0.575,-0.88,-2.42,3.2,0.43,-0.19,0.01
2021-11-10 11:9:31.5920,0.315,1.209,-0.554,-1.22,-2.0,3.93,0.63,-0.29,0.01
2021-11-10 11:9:31.6020,0.334,1.293,-0.456,-1.36,-2.14,3.97,0.82,-0.44,-0.02
2021-11-10 11:9:31.6130,0.377,1.37,-0.38,-1.48,-2.84,3.17,0.86,-0.49,-0.06
2021-11-10 11:9:31.6220,0.389,1.383,-0.424,-1.86,-3.73,2.06,0.74,-0.53,-0.09
2021-11-10 11:9:31.6320,0.329,1.437,-0.424,-2.21,-4.08,2.03,0.69,-0.66,-0.16
2021-11-10 11:9:31.6420,0.273,1.558,-0.25,-1.88,-4.3,2.39,0.74,-0.66,-0.27
2021-11-10 11:9:31.6520,0.264,1.615,-0.096,-1.26,-5.38,1.19,0.63,-0.49,-0.35
2021-11-10 11:9:31.6620,0.238,1.555,-0.01,-1.05,-6.32,-0.73,0.32,-0.3,-0.37
2021-11-10 11:9:31.6710,0.141,1.429,0.048,-1.03,-6.12,-1.67,0.1,-0.07,-0.33
2021-11-10 11:9:31.6830,0.052,1.24,-0.003,-0.31,-5.08,-2.51,0.16,0.01,-0.25
2021-11-10 11:9:31.6910,-0.021,1.009,-0.055,0.65,-3.49,-2.36,0.39,0.03,-0.1
2021-11-10 11:9:31.7030,-0.067,0.818,-0.124,1.41,-1.29,-1.82,0.56,0.02,0.08
2021-11-10 11:9:31.7120,-0.069,0.665,-0.229,2.01,0.76,-1.34,0.54,-0.07,0.21
2021-11-10 11:9:31.7210,-0.034,0.56,-0.283,2.21,2.38,-0.42,0.33,-0.2,0.27
2021-11-10 11:9:31.7330,0.036,0.501,-0.265,2.02,3.6,0.38,0.04,-0.29,0.31
2021-11-10 11:9:31.7420,0.125,0.447,-0.176,1.49,4.3,0.44,-0.25,-0.37,0.35
2021-11-10 11:9:31.7520,0.201,0.41,-0.074,0.67,4.83,-0.13,-0.51,-0.44,0.38
2021-11-10 11:9:31.7620,0.251,0.41,-0.016,-0.13,5.29,-1.16,-0.77,-0.57,0.37
2021-11-10 11:9:31.7720,0.27,0.495,0.027,-0.7,5.49,-1.79,-1.02,-0.78,0.25
2021-11-10 11:9:31.7810,0.259,0.661,0.067,-1.02,5.02,-2.16,-1.23,-1.09,0.02
2021-11-10 11:9:31.7920,0.238,0.899,0.116,-1.05,3.69,-2.43,-1.31,-1.41,-0.24
2021-11-10 11:9:31.8020,0.209,1.119,0.167,-0.91,1.63,-2.8,-1.29,-1.59,-0.41
2021-11-10 11:9:31.8110,0.157,1.229,0.227,-0.74,-0.74,-3.16,-1.26,-1.48,-0.4
2021-11-10 11:9:31.8220,0.066,1.256,0.249,-0.38,-2.2,-3.66,-1.18,-1.12,-0.28
2021-11-10 11:9:31.8320,-0.065,1.189,0.222,0.32,-2.73,-3.98,-0.99,-0.68,-0.13
2021-11-10 11:9:31.8420,-0.181,1.071,0.156,1.48,-2.42,-3.8,-0.73,-0.25,0.04
2021-11-10 11:9:31.8510,-0.241,0.979,0.07,2.76,-1.33,-3.23,-0.54,0.09,0.15
2021-11-10 11:9:31.8610,-0.246,0.914,0.002,3.59,-0.29,-2.38,-0.42,0.45,0.21
2021-11-10 11:9:31.8720,-0.2,0.879,-0.013,3.86,0.44,-1.54,-0.42,0.45,0.21
2021-11-10 11:9:31.8810,-0.117,0.873,0.006,3.61,0.89,-1.15,-0.42,0.59,0.21
2021-11-10 11:9:31.8910,-0.014,0.894,0.025,2.95,1.06,-1.19,-0.42,0.71,0.21
2021-11-10 11:9:31.9020,0.088,0.925,0.025,2.02,0.95,-1.37,-0.43,0.8,0.22
2021-11-10 11:9:31.9120,0.165,0.962,0.015,1.02,0.67,-1.38,-0.41,0.83,0.22
2021-11-10 11:9:31.9210,0.221,0.989,-0.004,0.18,0.33,-1.26,-0.37,0.82,0.19
2021-11-10 11:9:31.9310,0.262,0.997,-0.012,-0.39,0.0,-1.07,-0.36,0.77,0.15
2021-11-10 11:9:31.9410,0.288,0.99,0.003,-0.84,-0.15,-0.85,-0.34,0.77,0.11
2021-11-10 11:9:31.9510,0.299,0.978,-0.004,-1.13,-0.12,-0.9,-0.32,0.77,-0.01
2021-11-10 11:9:31.9610,0.302,0.964,-0.022,-1.28,-0.01,-0.92,-0.32,0.77,-0.01
2021-11-10 11:9:31.9710,0.298,0.942,-0.023,-1.33,0.12,-0.67,-0.32,0.76,-0.08
2021-11-10 11:9:31.9810,0.298,0.921,-0.028,-1.32,0.31,-0.57,-0.32,0.76,-0.15
2021-11-10 11:9:31.9910,0.295,0.898,-0.04,-1.31,0.53,-0.51,-0.33,0.76,-0.19
2021-11-10 11:9:32.0010,0.283,0.871,-0.055,-1.32,0.75,-0.37,-0.35,0.76,-0.21
2021-11-10 11:9:32.0110,0.274,0.838,-0.067,-1.23,1.0,-0.19,-0.38,0.74,-0.21
2021-11-10 11:9:32.0210,0.264,0.804,-0.074,-1.15,1.31,0.01,-0.42,0.72,-0.21
2021-11-10 11:9:32.0310,0.26,0.782,-0.082,-1.07,1.66,0.13,-0.44,0.69,-0.2
2021-11-10 11:9:32.0400,0.269,0.767,-0.092,-1.02,1.93,0.27,-0.47,0.66,-0.21
2021-11-10 11:9:32.0510,0.291,0.763,-0.116,-1.07,2.1,0.41,-0.49,0.61,-0.23
2021-11-10 11:9:32.0600,0.31,0.772,-0.135,-1.27,2.19,0.64,-0.52,0.53,-0.29
2021-11-10 11:9:32.0710,0.323,0.802,-0.133,-1.51,2.17,0.95,-0.52,0.39,-0.4
2021-11-10 11:9:32.0810,0.324,0.845,-0.13,-1.7,1.96,1.05,-0.52,0.39,-0.4
2021-11-10 11:9:32.0920,0.315,0.89,-0.128,-1.79,1.58,1.06,-0.48,0.34,-0.45
2021-11-10 11:9:32.1000,0.296,0.928,-0.136,-1.78,1.14,1.08,-0.45,0.31,-0.49
2021-11-10 11:9:32.1110,0.268,0.961,-0.138,-1.68,0.74,1.17,-0.42,0.31,-0.53
2021-11-10 11:9:32.1210,0.222,0.991,-0.126,-1.5,0.41,1.28,-0.33,0.36,-0.61
2021-11-10 11:9:32.1310,0.173,1.016,-0.101,-1.18,0.12,1.25,-0.29,0.44,-0.65
2021-11-10 11:9:32.1420,0.13,1.035,-0.07,-0.74,-0.14,1.09,-0.29,0.44,-0.65
2021-11-10 11:9:32.1510,0.1,1.043,-0.051,-0.35,-0.35,0.82,-0.26,0.74,-0.61
2021-11-10 11:9:32.1600,0.102,1.025,-0.047,-0.07,-0.47,0.6,-0.26,0.74,-0.61
2021-11-10 11:9:32.1700,0.152,0.986,-0.057,0.02,-0.4,0.55,-0.26,0.9,-0.5
2021-11-10 11:9:32.1800,0.246,0.954,-0.078,-0.34,-0.06,0.62,-0.24,0.98,-0.34
2021-11-10 11:9:32.1910,0.363,0.935,-0.119,-1.13,0.31,0.83,-0.21,0.93,-0.18
2021-11-10 11:9:32.2000,0.485,0.917,-0.184,-2.23,0.53,1.16,-0.22,0.78,-0.03
2021-11-10 11:9:32.2100,0.575,0.91,-0.247,-3.43,0.7,1.76,-0.26,0.58,0.08
2021-11-10 11:9:32.2210,0.612,0.931,-0.284,-4.47,0.84,2.45,-0.45,0.23,0.25
2021-11-10 11:9:32.2310,0.614,0.988,-0.306,-4.99,0.74,2.96,-0.45,0.23,0.25
2021-11-10 11:9:32.2410,0.581,1.086,-0.274,-5.11,0.32,3.3,-0.57,0.07,0.31
2021-11-10 11:9:32.2510,0.536,1.199,-0.182,-4.87,-0.51,3.27,-0.71,-0.33,0.38
2021-11-10 11:9:32.2610,0.475,1.305,-0.061,-4.4,-1.61,2.65,-0.71,-0.33,0.38
2021-11-10 11:9:32.2720,0.378,1.396,0.035,-3.86,-2.69,1.57,-0.71,-0.48,0.44
2021-11-10 11:9:32.2810,0.293,1.451,0.12,-2.96,-3.67,0.55,-0.69,-0.61,0.52
2021-11-10 11:9:32.2910,0.215,1.48,0.223,-1.97,-4.35,-0.18,-0.58,-0.72,0.56
2021-11-10 11:9:32.3000,0.103,1.489,0.288,-1.2,-4.73,-1.16,-0.38,-0.78,0.59
2021-11-10 11:9:32.3110,-0.003,1.455,0.361,-0.14,-4.91,-1.91,-0.16,-0.79,0.62
2021-11-10 11:9:32.3200,-0.085,1.374,0.417,1.04,-4.78,-2.57,0.06,-0.7,0.65
2021-11-10 11:9:32.3310,-0.147,1.272,0.444,1.99,-4.16,-3.27,0.29,-0.53,0.69
2021-11-10 11:9:32.3400,-0.18,1.185,0.459,2.76,-3.18,-3.66,0.52,-0.32,0.71
2021-11-10 11:9:32.3500,-0.188,1.115,0.449,3.27,-2.26,-3.92,0.73,-0.11,0.71
2021-11-10 11:9:32.3600,-0.187,1.055,0.418,3.48,-1.53,-4.02,0.93,0.06,0.71
2021-11-10 11:9:32.3710,-0.18,1.01,0.375,3.57,-0.91,-3.84,1.11,0.22,0.73
2021-11-10 11:9:32.3800,-0.162,0.984,0.291,3.6,-0.41,-3.62,1.24,0.41,0.77
2021-11-10 11:9:32.3900,-0.134,0.994,0.171,3.54,-0.1,-3.07,1.29,0.63,0.82
2021-11-10 11:9:32.4000,-0.102,1.041,0.051,3.37,-0.05,-2.11,1.29,0.87,0.84
2021-11-10 11:9:32.4110,-0.081,1.098,-0.031,3.15,-0.43,-0.98,1.27,1.1,0.85
2021-11-10 11:9:32.4200,-0.06,1.146,-0.078,2.97,-0.98,-0.11,1.24,1.27,0.81
2021-11-10 11:9:32.4300,0.006,1.166,-0.113,2.88,-1.54,0.37,1.17,1.3,0.71
2021-11-10 11:9:32.4410,0.122,1.147,-0.143,2.51,-1.87,0.67,1.04,1.19,0.54
2021-11-10 11:9:32.4500,0.257,1.082,-0.172,1.57,-1.85,0.91,0.86,0.97,0.33
2021-11-10 11:9:32.4600,0.376,0.995,-0.177,0.3,-1.39,1.15,0.58,0.32,0.02
2021-11-10 11:9:32.4710,0.462,0.916,-0.161,-0.96,-0.57,1.27,0.58,0.32,0.02
2021-11-10 11:9:32.4800,0.55,0.876,-0.163,-1.91,0.26,1.09,0.54,-0.03,-0.03
2021-11-10 11:9:32.4900,0.623,0.872,-0.194,-2.75,0.82,0.97,0.54,-0.42,-0.09
2021-11-10 11:9:32.5000,0.639,0.882,-0.211,-3.58,0.97,1.1,0.52,-0.85,-0.13
2021-11-10 11:9:32.5100,0.592,0.868,-0.196,-4.0,0.88,1.33,0.49,-1.21,-0.14
2021-11-10 11:9:32.5190,0.502,0.832,-0.178,-3.78,0.91,1.18,0.41,-1.71,-0.12
2021-11-10 11:9:32.5300,0.395,0.782,-0.143,-3.05,1.19,0.94,0.41,-1.71,-0.12
2021-11-10 11:9:32.5400,0.291,0.743,-0.116,-2.05,1.65,0.57,0.32,-1.82,-0.11
2021-11-10 11:9:32.5490,0.195,0.713,-0.113,-1.05,2.09,0.21,0.22,-1.87,-0.1
2021-11-10 11:9:32.5600,0.149,0.717,-0.153,-0.06,2.42,-0.03,-0.03,-1.93,-0.16
2021-11-10 11:9:32.5690,0.07,0.728,-0.105,0.51,2.52,0.25,-0.03,-1.93,-0.16
2021-11-10 11:9:32.5790,0.009,0.749,-0.07,1.06,2.39,0.16,-0.05,-1.76,-0.15
2021-11-10 11:9:32.5910,0.006,0.784,-0.103,1.82,2.28,-0.48,-0.04,-1.64,-0.14
2021-11-10 11:9:32.6000,0.0,0.814,-0.102,1.99,1.96,-0.33,-0.08,-1.49,-0.14
2021-11-10 11:9:32.6100,-0.002,0.814,-0.104,1.95,1.61,-0.18,-0.18,-1.15,-0.09
2021-11-10 11:9:32.6200,0.018,0.806,-0.117,2.01,1.52,-0.26,-0.18,-1.15,-0.09
2021-11-10 11:9:32.6300,0.045,0.797,-0.13,1.87,1.6,-0.13,-0.24,-0.99,-0.08
2021-11-10 11:9:32.6400,0.072,0.769,-0.15,1.59,1.66,-0.01,-0.27,-0.88,-0.07
2021-11-10 11:9:32.6490,0.097,0.746,-0.16,1.33,1.88,0.18,-0.28,-0.77,-0.07
2021-11-10 11:9:32.6590,0.113,0.725,-0.168,1.02,2.14,0.34,-0.25,-0.66,-0.05
2021-11-10 11:9:32.6700,0.132,0.714,-0.187,0.85,2.36,0.41,-0.19,-0.55,-0.03
2021-11-10 11:9:32.6810,0.142,0.708,-0.204,0.66,2.51,0.56,-0.07,-0.45,0.05
2021-11-10 11:9:32.6890,0.154,0.709,-0.225,0.53,2.59,0.75,-0.07,-0.45,0.05
2021-11-10 11:9:32.7000,0.169,0.717,-0.243,0.44,2.61,0.92,-0.05,-0.43,0.11
2021-11-10 11:9:32.7100,0.19,0.721,-0.25,0.3,2.54,1.12,-0.07,-0.41,0.17
2021-11-10 11:9:32.7190,0.216,0.726,-0.252,0.14,2.48,1.24,-0.17,-0.42,0.28
2021-11-10 11:9:32.7300,0.239,0.744,-0.248,-0.07,2.44,1.27,-0.17,-0.42,0.28
2021-11-10 11:9:32.7390,0.258,0.791,-0.242,-0.3,2.33,1.27,-0.24,-0.48,0.29
2021-11-10 11:9:32.7490,0.278,0.867,-0.228,-0.47,1.98,1.23,-0.29,-0.53,0.27
2021-11-10 11:9:32.7600,0.3,0.955,-0.204,-0.65,1.33,1.15,-0.33,-0.58,0.22
2021-11-10 11:9:32.7700,0.3,1.036,-0.146,-0.85,0.48,0.99,-0.34,-0.68,0.16
2021-11-10 11:9:32.7790,0.255,1.122,-0.08,-0.98,-0.34,0.58,-0.28,-0.8,0.1
2021-11-10 11:9:32.7890,0.206,1.205,-0.083,-0.69,-1.15,-0.13,-0.22,-0.84,-0.0
2021-11-10 11:9:32.7990,0.171,1.283,-0.146,-0.18,-1.99,-0.39,-0.19,-0.46,-0.22
2021-11-10 11:9:32.8090,0.149,1.331,-0.246,0.18,-2.77,0.06,-0.19,-0.46,-0.22
2021-11-10 11:9:32.8180,0.167,1.327,-0.364,0.44,-3.39,0.93,-0.1,-0.15,-0.29
2021-11-10 11:9:32.8290,0.204,1.272,-0.484,0.41,-3.55,2.05,0.05,0.13,-0.31
2021-11-10 11:9:32.8390,0.23,1.235,-0.532,0.01,-3.15,3.23,0.33,0.29,-0.29
2021-11-10 11:9:32.8490,0.257,1.25,-0.471,-0.29,-2.64,4.04,0.69,0.31,-0.26
2021-11-10 11:9:32.8580,0.299,1.29,-0.351,-0.55,-2.59,3.72,0.97,0.28,-0.23
2021-11-10 11:9:32.8690,0.366,1.308,-0.352,-0.91,-2.99,2.56,0.97,0.27,-0.14
2021-11-10 11:9:32.8790,0.436,1.374,-0.458,-1.49,-3.25,1.79,0.92,0.05,-0.02
2021-11-10 11:9:32.8890,0.487,1.563,-0.331,-2.19,-3.58,2.73,1.04,-0.26,-0.06
2021-11-10 11:9:32.8990,0.463,1.737,-0.09,-2.82,-5.04,2.45,0.93,-0.34,-0.23
2021-11-10 11:9:32.9080,0.371,1.749,-0.006,-2.96,-7.05,-0.03,0.52,-0.25,-0.33
2021-11-10 11:9:32.9190,0.296,1.571,0.022,-2.25,-7.84,-1.46,0.08,-0.09,-0.34
2021-11-10 11:9:32.9280,0.212,1.277,0.05,-1.42,-6.77,-1.81,-0.12,-0.03,-0.28
2021-11-10 11:9:32.9380,0.08,1.003,0.089,-0.76,-4.13,-2.06,0.01,-0.08,-0.18
2021-11-10 11:9:32.9480,-0.036,0.81,0.06,0.39,-1.28,-2.44,0.26,-0.2,-0.03
2021-11-10 11:9:32.9590,-0.055,0.701,-0.05,1.68,0.97,-2.58,0.42,-0.46,0.09
2021-11-10 11:9:32.9690,0.024,0.642,-0.109,2.31,2.28,-1.72,0.34,-0.71,0.19
2021-11-10 11:9:32.9790,0.112,0.618,-0.09,1.81,3.03,-0.86,0.13,-0.87,0.25
2021-11-10 11:9:32.9890,0.19,0.578,-0.04,0.92,3.32,-0.82,-0.1,-0.96,0.28
2021-11-10 11:9:32.9990,0.249,0.553,0.015,0.13,3.65,-1.24,-0.33,-1.01,0.28
2021-11-10 11:9:33.0090,0.271,0.556,0.064,-0.53,4.0,-1.75,-0.54,-1.07,0.25
2021-11-10 11:9:33.0190,0.259,0.6,0.096,-0.89,4.07,-2.23,-0.85,-1.18,0.08
2021-11-10 11:9:33.0280,0.211,0.693,0.117,-0.91,3.84,-2.55,-0.85,-1.18,0.08
2021-11-10 11:9:33.0390,0.152,0.813,0.135,-0.57,3.11,-2.72,-0.96,-1.19,-0.05
2021-11-10 11:9:33.0480,0.081,0.948,0.156,-0.04,2.02,-2.82,-1.05,-1.14,-0.18
2021-11-10 11:9:33.0590,0.004,1.068,0.181,0.56,0.76,-2.92,-1.08,-1.01,-0.28
2021-11-10 11:9:33.0680,-0.073,1.125,0.2,1.27,-0.51,-3.07,-0.87,-0.47,-0.23
2021-11-10 11:9:33.0790,-0.139,1.109,0.192,2.0,-1.33,-3.23,-0.87,-0.47,-0.23
2021-11-10 11:9:33.0890,-0.18,1.04,0.156,2.69,-1.42,-3.19,-0.69,-0.14,-0.13
2021-11-10 11:9:33.0990,-0.196,0.952,0.114,3.19,-0.88,-2.87,-0.53,0.18,-0.02
2021-11-10 11:9:33.1090,-0.192,0.87,0.09,3.44,-0.05,-2.4,-0.33,0.71,0.19
2021-11-10 11:9:33.1190,-0.152,0.814,0.081,3.5,0.8,-2.04,-0.33,0.71,0.19
2021-11-10 11:9:33.1290,-0.075,0.793,0.075,3.29,1.46,-1.88,-0.27,0.9,0.26
2021-11-10 11:9:33.1390,0.019,0.806,0.07,2.7,1.8,-1.77,-0.23,1.04,0.28
2021-11-10 11:9:33.1480,0.1,0.842,0.061,1.84,1.79,-1.67,-0.21,1.15,0.25
2021-11-10 11:9:33.1590,0.161,0.886,0.039,1.0,1.5,-1.59,-0.23,1.17,0.18
2021-11-10 11:9:33.1680,0.215,0.929,0.018,0.36,1.08,-1.36,-0.29,1.08,0.07
2021-11-10 11:9:33.1780,0.26,0.958,0.022,-0.17,0.65,-1.07,-0.34,0.96,-0.04
2021-11-10 11:9:33.1880,0.295,0.971,0.023,-0.65,0.31,-0.97,-0.37,0.87,-0.12
2021-11-10 11:9:33.1990,0.307,0.966,0.006,-1.05,0.12,-0.98,-0.38,0.82,-0.16
2021-11-10 11:9:33.2090,0.315,0.948,-0.01,-1.26,0.11,-0.82,-0.37,0.78,-0.17
2021-11-10 11:9:33.2180,0.308,0.928,-0.022,-1.35,0.26,-0.59,-0.37,0.77,-0.17
2021-11-10 11:9:33.2280,0.296,0.916,-0.039,-1.36,0.46,-0.42,-0.36,0.77,-0.15
2021-11-10 11:9:33.2380,0.29,0.908,-0.048,-1.25,0.62,-0.23,-0.35,0.77,-0.17
2021-11-10 11:9:33.2480,0.285,0.906,-0.048,-1.18,0.71,-0.04,-0.35,0.79,-0.22
2021-11-10 11:9:33.2590,0.275,0.912,-0.047,-1.15,0.77,0.03,-0.37,0.82,-0.26
2021-11-10 11:9:33.2680,0.269,0.924,-0.037,-1.09,0.74,0.07,-0.38,0.85,-0.29
2021-11-10 11:9:33.2780,0.271,0.935,-0.024,-1.03,0.65,0.06,-0.37,0.9,-0.28
2021-11-10 11:9:33.2880,0.283,0.945,-0.013,-1.05,0.53,-0.02,-0.31,0.93,-0.26
2021-11-10 11:9:33.2980,0.3,0.956,-0.018,-1.15,0.44,-0.09,-0.22,0.95,-0.25
2021-11-10 11:9:33.3080,0.316,0.974,-0.049,-1.33,0.34,-0.11,-0.11,0.93,-0.26
2021-11-10 11:9:33.3180,0.326,0.99,-0.092,-1.52,0.2,0.13,0.07,0.86,-0.36
2021-11-10 11:9:33.3280,0.32,0.994,-0.12,-1.68,0.02,0.55,0.07,0.86,-0.36
2021-11-10 11:9:33.3380,0.301,0.994,-0.135,-1.72,-0.05,0.9,0.14,0.86,-0.39
2021-11-10 11:9:33.3480,0.275,0.986,-0.151,-1.6,-0.06,1.07,0.19,0.89,-0.4
2021-11-10 11:9:33.3580,0.25,0.974,-0.163,-1.41,-0.01,1.22,0.22,0.92,-0.4
2021-11-10 11:9:33.3690,0.247,0.951,-0.174,-1.17,0.1,1.34,0.16,0.99,-0.35
2021-11-10 11:9:33.3780,0.273,0.91,-0.176,-1.08,0.28,1.45,0.16,0.99,-0.35
2021-11-10 11:9:33.3880,0.32,0.859,-0.166,-1.25,0.62,1.53,0.07,1.04,-0.29
2021-11-10 11:9:33.3980,0.395,0.817,-0.146,-1.66,1.1,1.46,-0.06,1.02,-0.2
2021-11-10 11:9:33.4070,0.487,0.794,-0.129,-2.3,1.58,1.35,-0.15,0.89,-0.11
2021-11-10 11:9:33.4180,0.591,0.779,-0.149,-3.17,1.86,1.15,-0.21,0.61,-0.05
2021-11-10 11:9:33.4280,0.686,0.788,-0.209,-4.14,2.03,1.21,-0.4,0.02,0.0
2021-11-10 11:9:33.4380,0.71,0.837,-0.265,-5.17,2.07,1.72,-0.4,0.02,0.0
2021-11-10 11:9:33.4470,0.673,0.921,-0.284,-5.7,1.74,2.38,-0.53,-0.15,0.02
2021-11-10 11:9:33.4580,0.572,1.037,-0.243,-5.54,1.03,2.79,-0.65,-0.26,0.03
2021-11-10 11:9:33.4670,0.441,1.173,-0.159,-4.77,0.0,2.69,-0.75,-0.34,0.04
2021-11-10 11:9:33.4780,0.29,1.322,-0.05,-3.55,-1.27,2.04,-0.72,-0.39,0.05
2021-11-10 11:9:33.4870,0.091,1.465,0.051,-2.16,-2.7,1.13,-0.62,-0.38,0.12
2021-11-10 11:9:33.4980,-0.083,1.552,0.101,-0.36,-4.17,0.06,-0.54,-0.35,0.3
2021-11-10 11:9:33.5080,-0.113,1.587,0.186,1.67,-5.28,-0.52,-0.44,-0.29,0.5
2021-11-10 11:9:33.5180,-0.085,1.576,0.263,2.55,-5.78,-1.12,-0.29,-0.23,0.66
2021-11-10 11:9:33.5280,-0.047,1.486,0.286,2.43,-5.9,-2.04,-0.13,-0.2,0.79
2021-11-10 11:9:33.5370,-0.006,1.38,0.333,2.19,-5.32,-2.4,0.04,-0.16,0.87
2021-11-10 11:9:33.5480,0.006,1.309,0.382,1.86,-4.22,-2.71,0.23,-0.1,0.87
2021-11-10 11:9:33.5580,-0.001,1.226,0.399,1.67,-3.46,-3.32,0.57,0.01,0.72
2021-11-10 11:9:33.5670,-0.014,1.134,0.402,1.81,-2.7,-3.63,0.57,0.01,0.72
2021-11-10 11:9:33.5780,-0.055,1.039,0.37,1.93,-1.86,-3.77,0.74,0.13,0.63
2021-11-10 11:9:33.5870,-0.108,0.96,0.298,2.3,-0.92,-3.7,0.89,0.28,0.57
2021-11-10 11:9:33.5980,-0.15,0.932,0.211,2.85,-0.08,-3.2,1.01,0.47,0.54
2021-11-10 11:9:33.6070,-0.184,0.933,0.125,3.37,0.4,-2.46,1.09,0.67,0.54
2021-11-10 11:9:33.6180,-0.198,0.944,0.055,3.79,0.44,-1.69,1.13,0.89,0.56
2021-11-10 11:9:33.6280,-0.176,0.952,-0.005,4.08,0.34,-1.03,1.14,1.09,0.59
2021-11-10 11:9:33.6370,-0.106,0.959,-0.052,4.07,0.24,-0.48,1.02,1.27,0.56
2021-11-10 11:9:33.6470,-0.004,0.962,-0.082,3.62,0.14,-0.05,1.02,1.27,0.56
2021-11-10 11:9:33.6570,0.1,0.952,-0.091,2.77,0.08,0.26,0.78,0.99,0.37
2021-11-10 11:9:33.6680,0.199,0.921,-0.111,1.76,0.09,0.36,0.78,0.99,0.37
2021-11-10 11:9:33.6770,0.292,0.887,-0.136,0.83,0.32,0.43,0.6,0.45,0.2
2021-11-10 11:9:33.6880,0.365,0.866,-0.152,-0.11,0.66,0.65,0.6,0.45,0.2
2021-11-10 11:9:33.6980,0.418,0.869,-0.176,-0.89,0.92,0.78,0.53,0.18,0.16
2021-11-10 11:9:33.7080,0.444,0.902,-0.191,-1.46,0.99,0.95,0.43,-0.32,0.08
2021-11-10 11:9:33.7180,0.441,0.938,-0.193,-1.82,0.76,1.09,0.43,-0.32,0.08
2021-11-10 11:9:33.7270,0.417,0.955,-0.189,-1.88,0.38,1.1,0.44,-0.52,0.06
2021-11-10 11:9:33.7380,0.375,0.948,-0.19,-1.73,0.11,1.02,0.47,-0.65,0.04
2021-11-10 11:9:33.7470,0.341,0.935,-0.204,-1.35,0.11,0.92,0.47,-0.77,0.02
2021-11-10 11:9:33.7570,0.31,0.914,-0.216,-0.7,0.39,1.04,0.36,-1.0,-0.1
2021-11-10 11:9:33.7680,0.273,0.893,-0.216,-0.4,0.6,1.06,0.29,-1.05,-0.16
2021-11-10 11:9:33.7760,0.228,0.877,-0.2,-0.4,0.6,1.06,0.29,-1.05,-0.16
2021-11-10 11:9:33.7870,0.181,0.862,-0.182,0.0,0.78,0.89,0.26,-1.02,-0.18
2021-11-10 11:9:33.7970,0.142,0.853,-0.176,0.43,0.93,0.65,0.28,-0.82,-0.12
2021-11-10 11:9:33.8060,0.121,0.852,-0.193,0.83,1.05,0.49,0.28,-0.82,-0.12
2021-11-10 11:9:33.8170,0.104,0.84,-0.195,1.09,1.07,0.54,0.27,-0.61,-0.05
2021-11-10 11:9:33.8270,0.096,0.811,-0.197,1.23,1.12,0.61,0.27,-0.61,-0.05
2021-11-10 11:9:33.8360,0.101,0.793,-0.204,1.37,1.38,0.56,0.25,-0.52,-0.02
2021-11-10 11:9:33.8460,0.103,0.767,-0.214,1.32,1.58,0.58,0.23,-0.46,-0.01
2021-11-10 11:9:33.8570,0.128,0.752,-0.234,1.31,1.8,0.64,0.19,-0.4,0.01
2021-11-10 11:9:33.8660,0.156,0.749,-0.25,1.16,2.02,0.77,0.12,-0.38,-0.02
2021-11-10 11:9:33.8770,0.173,0.737,-0.258,0.85,2.05,0.95,-0.03,-0.37,-0.09
2021-11-10 11:9:33.8870,0.182,0.726,-0.269,0.62,2.15,1.05,-0.03,-0.37,-0.09
2021-11-10 11:9:33.8970,0.188,0.72,-0.296,0.5,2.28,1.11,-0.1,-0.35,-0.12
2021-11-10 11:9:33.9070,0.19,0.717,-0.318,0.41,2.34,1.34,-0.16,-0.33,-0.12
2021-11-10 11:9:33.9170,0.193,0.718,-0.339,0.38,2.41,1.6,-0.19,-0.29,-0.11
2021-11-10 11:9:33.9270,0.199,0.718,-0.348,0.33,2.4,1.82,-0.2,-0.27,-0.06
2021-11-10 11:9:33.9360,0.219,0.728,-0.345,0.3,2.41,1.98,-0.22,-0.27,-0.01
2021-11-10 11:9:33.9470,0.243,0.741,-0.333,0.14,2.36,1.99,-0.29,-0.41,0.08
2021-11-10 11:9:33.9580,0.277,0.754,-0.315,-0.08,2.22,1.93,-0.29,-0.41,0.08
2021-11-10 11:9:33.9670,0.313,0.778,-0.286,-0.72,1.93,1.57,-0.47,-0.6,0.13
2021-11-10 11:9:33.9760,0.352,0.815,-0.267,-0.72,1.93,1.57,-0.47,-0.6,0.13
2021-11-10 11:9:33.9860,0.383,0.875,-0.25,-1.08,1.63,1.37,-0.57,-0.69,0.13
2021-11-10 11:9:33.9970,0.37,0.963,-0.199,-1.45,1.13,1.28,-0.63,-0.79,0.1
2021-11-10 11:9:34.0070,0.296,1.061,-0.127,-1.52,0.37,0.95,-0.5,-0.94,0.02
2021-11-10 11:9:34.0170,0.202,1.157,-0.092,-1.02,-0.58,0.31,-0.4,-0.87,-0.08
2021-11-10 11:9:34.0270,0.133,1.249,-0.13,-0.1,-1.51,-0.21,-0.4,-0.87,-0.08
2021-11-10 11:9:34.0370,0.086,1.31,-0.226,0.66,-2.45,-0.11,-0.34,-0.67,-0.17
2021-11-10 11:9:34.0470,0.054,1.345,-0.316,1.15,-3.16,0.71,-0.2,-0.03,-0.31
2021-11-10 11:9:34.0560,0.068,1.322,-0.41,1.52,-3.6,1.66,-0.06,0.18,-0.29
2021-11-10 11:9:34.0670,0.124,1.226,-0.505,1.55,-3.63,2.56,-0.06,0.18,-0.29
2021-11-10 11:9:34.0760,0.19,1.109,-0.572,1.11,-2.91,3.52,0.16,0.29,-0.24
2021-11-10 11:9:34.0870,0.232,1.028,-0.591,0.43,-1.79,4.26,0.4,0.25,-0.18
2021-11-10 11:9:34.0970,0.279,1.004,-0.536,-0.08,-0.78,4.65,0.62,0.11,-0.13
2021-11-10 11:9:34.1060,0.359,1.004,-0.475,-0.48,-0.4,4.26,0.64,-0.26,-0.04
2021-11-10 11:9:34.1160,0.43,1.046,-0.441,-1.15,-0.32,3.57,0.64,-0.26,-0.04
2021-11-10 11:9:34.1260,0.41,1.162,-0.422,-1.99,-0.55,3.02,0.55,-0.49,-0.07
2021-11-10 11:9:34.1360,0.338,1.377,-0.329,-2.2,-1.38,2.82,0.55,-0.74,-0.14
2021-11-10 11:9:34.1470,0.292,1.656,-0.151,-1.6,-3.12,2.18,0.46,-0.74,-0.25
2021-11-10 11:9:34.1550,0.298,1.847,-0.003,-1.03,-5.74,0.63,0.18,-0.47,-0.35
2021-11-10 11:9:34.1660,0.274,1.787,0.132,-0.95,-8.14,-1.05,-0.09,-0.04,-0.38
2021-11-10 11:9:34.1760,0.145,1.445,0.214,-1.01,-8.61,-2.3,-0.16,0.29,-0.28
2021-11-10 11:9:34.1860,-0.025,1.054,0.194,-0.12,-6.16,-3.48,0.1,0.31,-0.07
2021-11-10 11:9:34.1960,-0.148,0.808,0.123,1.52,-2.13,-3.58,0.45,0.16,0.09
2021-11-10 11:9:34.2060,-0.162,0.645,-0.012,2.97,0.78,-3.14,0.62,-0.07,0.22
2021-11-10 11:9:34.2160,-0.039,0.587,-0.132,3.65,2.64,-2.08,0.27,-0.34,0.36
2021-11-10 11:9:34.2270,0.091,0.603,-0.137,2.86,3.61,-0.74,0.27,-0.34,0.36
2021-11-10 11:9:34.2360,0.186,0.63,-0.101,1.52,3.64,-0.28,0.04,-0.35,0.38
2021-11-10 11:9:34.2460,0.261,0.675,-0.064,0.52,3.36,-0.61,-0.13,-0.39,0.39
2021-11-10 11:9:34.2560,0.301,0.729,-0.003,-0.28,3.02,-0.91,-0.4,-0.56,0.3
2021-11-10 11:9:34.2660,0.306,0.777,0.043,-0.79,2.46,-1.43,-0.4,-0.56,0.3
2021-11-10 11:9:34.2760,0.288,0.841,0.074,-0.93,2.02,-1.93,-0.52,-0.69,0.2
2021-11-10 11:9:34.2860,0.255,0.894,0.103,-0.85,1.43,-2.23,-0.66,-0.95,0.02
2021-11-10 11:9:34.2950,0.214,0.947,0.136,-0.57,0.88,-2.45,-0.78,-0.95,0.02
2021-11-10 11:9:34.3050,0.164,1.008,0.164,-0.22,0.38,-2.72,-0.82,-0.96,-0.01
2021-11-10 11:9:34.3160,0.107,1.061,0.184,0.24,-0.18,-2.96,-0.81,-0.91,-0.03
2021-11-10 11:9:34.3250,0.038,1.069,0.198,0.75,-0.76,-3.12,-0.74,-0.78,-0.04
2021-11-10 11:9:34.3350,-0.028,1.04,0.185,1.38,-1.01,-3.24,-0.64,-0.58,-0.04
2021-11-10 11:9:34.3450,-0.083,0.991,0.152,2.05,-0.83,-3.19,-0.44,0.01,-0.01
2021-11-10 11:9:34.3560,-0.119,0.94,0.118,2.62,-0.4,-2.87,-0.44,0.01,-0.01
2021-11-10 11:9:34.3660,-0.124,0.912,0.088,3.07,0.12,-2.49,-0.36,0.29,0.03
2021-11-10 11:9:34.3760,-0.101,0.917,0.073,3.25,0.52,-2.13,-0.29,0.55,0.05
2021-11-10 11:9:34.3860,-0.06,0.942,0.068,3.12,0.58,-1.88,-0.24,0.77,0.06
2021-11-10 11:9:34.3960,-0.011,0.971,0.064,2.79,0.39,-1.76,-0.24,0.92,0.06
2021-11-10 11:9:34.4060,0.042,0.985,0.059,2.36,0.11,-1.7,-0.27,0.99,0.07
2021-11-10 11:9:34.4160,0.086,0.984,0.065,1.85,-0.1,-1.58,-0.29,1.01,0.08
2021-11-10 11:9:34.4260,0.122,0.972,0.072,1.4,-0.13,-1.56,-0.31,1.02,0.09
2021-11-10 11:9:34.4350,0.15,0.953,0.076,1.05,-0.05,-1.57,-0.31,1.03,0.06
2021-11-10 11:9:34.4440,0.173,0.935,0.07,0.75,0.11,-1.58,-0.3,1.02,0.02
2021-11-10 11:9:34.4560,0.186,0.922,0.068,0.52,0.31,-1.5,-0.3,1.02,-0.03
2021-11-10 11:9:34.4670,0.193,0.909,0.071,0.36,0.45,-1.41,-0.3,1.06,-0.06
2021-11-10 11:9:34.4750,0.199,0.895,0.068,0.27,0.57,-1.37,-0.3,1.23,-0.11
2021-11-10 11:9:34.4850,0.193,0.889,0.058,0.2,0.72,-1.32,-0.3,1.23,-0.11
2021-11-10 11:9:34.4960,0.187,0.892,0.042,0.21,0.82,-1.19,-0.27,1.33,-0.12
2021-11-10 11:9:34.5050,0.196,0.906,0.019,0.3,0.83,-1.01,-0.23,1.41,-0.12
2021-11-10 11:9:34.5160,0.213,0.923,-0.008,0.25,0.74,-0.74,-0.21,1.48,-0.12
2021-11-10 11:9:34.5250,0.228,0.935,-0.031,0.11,0.57,-0.45,-0.18,1.54,-0.1
2021-11-10 11:9:34.5350,0.244,0.934,-0.055,-0.06,0.43,-0.14,-0.14,1.58,-0.07
2021-11-10 11:9:34.5450,0.262,0.931,-0.085,-0.2,0.39,0.12,-0.11,1.58,-0.06
2021-11-10 11:9:34.5550,0.285,0.92,-0.111,-0.37,0.42,0.43,-0.08,1.52,-0.09
2021-11-10 11:9:34.5650,0.293,0.906,-0.131,-0.6,0.49,0.75,-0.05,1.45,-0.15
2021-11-10 11:9:34.5760,0.296,0.895,-0.151,-0.75,0.63,1.0,-0.03,1.37,-0.21
2021-11-10 11:9:34.5860,0.297,0.883,-0.164,-0.81,0.76,1.23,-0.05,1.28,-0.34
2021-11-10 11:9:34.5950,0.296,0.874,-0.177,-0.85,0.88,1.41,-0.05,1.28,-0.34
2021-11-10 11:9:34.6050,0.282,0.869,-0.192,-0.9,0.99,1.56,-0.07,1.29,-0.37
2021-11-10 11:9:34.6160,0.274,0.864,-0.206,-0.84,1.06,1.74,-0.06,1.31,-0.38
2021-11-10 11:9:34.6250,0.269,0.857,-0.214,-0.75,1.11,1.92,-0.06,1.33,-0.38
2021-11-10 11:9:34.6350,0.273,0.86,-0.22,-0.74,1.19,2.06,-0.07,1.31,-0.38
2021-11-10 11:9:34.6450,0.286,0.876,-0.224,-0.76,1.21,2.14,-0.09,1.28,-0.38
2021-11-10 11:9:34.6550,0.303,0.899,-0.22,-0.9,1.11,2.24,-0.12,1.25,-0.36
2021-11-10 11:9:34.6650,0.328,0.924,-0.207,-1.08,0.9,2.26,-0.17,1.23,-0.31
2021-11-10 11:9:34.6750,0.366,0.936,-0.18,-1.32,0.66,2.22,-0.23,1.2,-0.25
2021-11-10 11:9:34.6840,0.41,0.939,-0.168,-1.66,0.49,2.04,-0.28,1.12,-0.19
2021-11-10 11:9:34.6950,0.443,0.946,-0.18,-2.12,0.44,1.88,-0.31,0.87,-0.09
2021-11-10 11:9:34.7050,0.475,0.961,-0.2,-2.48,0.39,1.96,-0.34,0.87,-0.09
2021-11-10 11:9:34.7140,0.482,0.984,-0.207,-2.82,0.28,2.22,-0.4,0.73,-0.03
2021-11-10 11:9:34.7260,0.455,1.014,-0.205,-3.01,0.08,2.38,-0.4,0.73,-0.03
2021-11-10 11:9:34.7350,0.411,1.06,-0.195,-2.87,-0.18,2.42,-0.43,0.71,-0.02
2021-11-10 11:9:34.7450,0.358,1.117,-0.144,-2.48,-0.57,2.48,-0.47,0.71,-0.01
2021-11-10 11:9:34.7550,0.307,1.179,-0.079,-1.98,-1.11,2.16,-0.53,0.74,0.04
2021-11-10 11:9:34.7650,0.238,1.253,-0.017,-1.47,-1.7,1.62,-0.53,0.77,0.11
2021-11-10 11:9:34.7750,0.109,1.343,0.041,-0.9,-2.37,1.04,-0.28,0.69,0.33
2021-11-10 11:9:34.7850,-0.017,1.418,0.135,0.15,-3.22,0.53,-0.28,0.69,0.33
2021-11-10 11:9:34.7940,-0.076,1.452,0.255,1.59,-4.07,-0.18,-0.12,0.6,0.46
2021-11-10 11:9:34.8040,-0.127,1.424,0.347,2.41,-4.58,-1.33,0.1,0.56,0.56
2021-11-10 11:9:34.8140,-0.167,1.364,0.38,2.95,-4.53,-2.41,0.38,0.55,0.63
2021-11-10 11:9:34.8240,-0.176,1.323,0.393,3.47,-4.04,-2.97,0.61,0.64,0.67
2021-11-10 11:9:34.8340,-0.148,1.313,0.408,3.76,-3.5,-3.18,0.75,0.85,0.69
2021-11-10 11:9:34.8440,-0.102,1.271,0.427,3.67,-3.36,-3.36,0.89,1.12,0.63
2021-11-10 11:9:34.8540,-0.072,1.199,0.418,3.29,-3.12,-3.62,1.06,1.38,0.53
2021-11-10 11:9:34.8640,-0.083,1.155,0.367,2.95,-2.47,-3.75,1.22,1.62,0.43
2021-11-10 11:9:34.8750,-0.118,1.146,0.28,3.26,-1.7,-2.83,1.36,2.04,0.33
2021-11-10 11:9:34.8850,-0.124,1.16,0.183,3.26,-1.7,-2.83,1.36,2.04,0.33
2021-11-10 11:9:34.8960,-0.096,1.163,0.105,3.49,-1.77,-1.96,1.35,2.17,0.28
2021-11-10 11:9:34.9040,-0.049,1.127,0.054,3.33,-1.92,-1.18,1.28,2.29,0.24
2021-11-10 11:9:34.9140,0.034,1.094,0.03,2.99,-1.67,-0.64,1.19,2.33,0.14
2021-11-10 11:9:34.9250,0.129,1.065,0.003,2.3,-1.32,-0.4,1.19,2.33,0.14
2021-11-10 11:9:34.9340,0.227,1.02,-0.018,1.41,-1.03,-0.2,1.21,2.17,0.05
2021-11-10 11:9:34.9440,0.313,0.954,-0.056,0.45,-0.67,-0.05,1.18,1.91,-0.04
2021-11-10 11:9:34.9550,0.378,0.897,-0.092,-0.47,-0.09,0.18,1.02,1.28,-0.22
2021-11-10 11:9:34.9650,0.412,0.856,-0.114,-1.2,0.53,0.51,1.02,1.28,-0.22
2021-11-10 11:9:34.9740,0.426,0.827,-0.138,-1.68,1.0,0.7,0.94,1.01,-0.27
2021-11-10 11:9:34.9840,0.459,0.83,-0.184,-1.86,1.33,0.82,0.86,0.72,-0.29
2021-11-10 11:9:34.9950,0.464,0.852,-0.202,-2.14,1.45,1.17,0.8,0.45,-0.32
2021-11-10 11:9:35.0050,0.414,0.846,-0.205,-2.41,1.24,1.41,0.75,0.23,-0.35
2021-11-10 11:9:35.0140,0.348,0.823,-0.212,-2.12,1.2,1.39,0.71,0.05,-0.37
2021-11-10 11:9:35.0250,0.266,0.791,-0.209,-1.55,1.38,1.39,0.59,-0.12,-0.38
2021-11-10 11:9:35.0340,0.198,0.77,-0.205,-0.82,1.68,1.33,0.59,-0.12,-0.38
2021-11-10 11:9:35.0440,0.138,0.765,-0.209,-0.12,1.94,1.23,0.5,-0.13,-0.4
2021-11-10 11:9:35.0550,0.08,0.77,-0.202,0.44,2.05,1.2,0.42,-0.09,-0.4
2021-11-10 11:9:35.0640,0.039,0.79,-0.189,1.0,2.03,1.14,0.38,-0.01,-0.38
2021-11-10 11:9:35.0730,-0.001,0.818,-0.176,1.42,1.91,1.01,0.38,0.12,-0.34
2021-11-10 11:9:35.0840,-0.023,0.839,-0.18,1.79,1.64,0.81,0.39,0.25,-0.28
2021-11-10 11:9:35.0940,-0.009,0.862,-0.199,2.09,1.42,0.77,0.4,0.35,-0.22
2021-11-10 11:9:35.1050,0.011,0.864,-0.211,2.05,1.18,0.87,0.39,0.44,-0.16
2021-11-10 11:9:35.1140,0.035,0.845,-0.224,1.84,1.06,1.02,0.39,0.52,-0.11
2021-11-10 11:9:35.1250,0.075,0.82,-0.244,1.64,1.19,1.08,0.38,0.61,-0.0
2021-11-10 11:9:35.1330,0.124,0.798,-0.268,1.32,1.42,1.23,0.38,0.61,-0.0
2021-11-10 11:9:35.1440,0.172,0.775,-0.296,0.87,1.66,1.44,0.37,0.63,0.03
2021-11-10 11:9:35.1540,0.214,0.747,-0.322,0.39,1.85,1.67,0.32,0.6,0.06
2021-11-10 11:9:35.1640,0.251,0.717,-0.346,-0.04,2.12,1.94,0.25,0.54,0.06
2021-11-10 11:9:35.1740,0.281,0.688,-0.377,-0.4,2.39,2.15,0.17,0.47,0.05
2021-11-10 11:9:35.1840,0.298,0.662,-0.408,-0.72,2.68,2.43,0.07,0.4,0.05
2021-11-10 11:9:35.1940,0.305,0.645,-0.431,-0.92,2.95,2.75,-0.03,0.33,0.07
2021-11-10 11:9:35.2030,0.301,0.643,-0.436,-1.02,3.16,3.02,-0.21,0.13,0.14
2021-11-10 11:9:35.2140,0.289,0.652,-0.431,-1.0,3.24,3.17,-0.21,0.13,0.14
2021-11-10 11:9:35.2240,0.277,0.674,-0.404,-0.89,3.19,3.17,-0.26,-0.02,0.16
2021-11-10 11:9:35.2330,0.284,0.698,-0.359,-0.74,3.02,3.04,-0.44,-0.27,0.16
2021-11-10 11:9:35.2450,0.3,0.725,-0.323,-0.71,2.79,2.66,-0.44,-0.27,0.16
2021-11-10 11:9:35.2540,0.31,0.774,-0.29,-0.85,2.53,2.29,-0.54,-0.43,0.15
2021-11-10 11:9:35.2640,0.288,0.865,-0.252,-0.99,2.17,2.05,-0.58,-0.56,0.14
2021-11-10 11:9:35.2730,0.249,0.986,-0.236,-0.88,1.44,1.69,-0.54,-0.6,0.13
2021-11-10 11:9:35.2830,0.205,1.114,-0.25,-0.54,0.34,1.48,-0.37,-0.3,0.09
2021-11-10 11:9:35.2930,0.175,1.231,-0.311,-0.09,-0.91,1.52,-0.37,-0.3,0.09
2021-11-10 11:9:35.3040,0.143,1.338,-0.38,0.26,-2.11,1.97,-0.21,-0.02,0.07
2021-11-10 11:9:35.3130,0.112,1.415,-0.428,0.56,-3.2,2.7,0.01,0.25,0.04
2021-11-10 11:9:35.3240,0.082,1.432,-0.454,0.88,-4.11,3.23,0.21,0.41,0.0
2021-11-10 11:9:35.3330,0.051,1.413,-0.388,1.17,-4.51,3.61,0.31,0.47,-0.08
2021-11-10 11:9:35.3440,0.018,1.467,-0.258,1.47,-4.38,3.32,0.38,0.49,-0.2
2021-11-10 11:9:35.3530,0.018,1.706,-0.117,1.76,-4.47,2.16,0.59,0.39,-0.35
2021-11-10 11:9:35.3630,0.145,2.058,-0.038,1.94,-6.09,0.7,0.71,0.35,-0.48
2021-11-10 11:9:35.3730,0.34,2.235,0.001,1.2,-9.37,-0.45,0.47,0.52,-0.63
2021-11-10 11:9:35.3830,0.342,2.01,0.142,-0.8,-12.11,-0.77,0.14,0.97,-0.72
2021-11-10 11:9:35.3930,0.162,1.527,0.237,-1.78,-11.42,-1.78,0.13,1.34,-0.63
2021-11-10 11:9:35.4030,-0.03,1.09,0.198,-0.52,-7.27,-3.15,0.5,1.33,-0.41
2021-11-10 11:9:35.4130,-0.156,0.825,0.105,1.47,-2.54,-3.21,0.89,1.15,-0.2
2021-11-10 11:9:35.4240,-0.183,0.675,-0.05,2.97,0.68,-2.57,1.03,0.91,-0.01
2021-11-10 11:9:35.4340,-0.112,0.605,-0.179,3.67,2.47,-1.31,0.9,0.64,0.14
2021-11-10 11:9:35.4430,0.006,0.613,-0.199,3.29,3.45,0.11,0.65,0.41,0.23
2021-11-10 11:9:35.4530,0.121,0.627,-0.111,2.29,3.61,0.75,0.38,0.29,0.25
2021-11-10 11:9:35.4630,0.183,0.634,-0.044,1.11,3.4,0.14,0.14,0.23,0.23
2021-11-10 11:9:35.4720,0.214,0.653,-0.013,0.31,3.34,-0.72,-0.11,0.14,0.17
2021-11-10 11:9:35.4830,0.219,0.69,0.041,-0.06,3.2,-1.03,-0.33,0.05,0.09
2021-11-10 11:9:35.4930,0.206,0.76,0.092,-0.21,2.92,-1.43,-0.5,-0.06,-0.0
2021-11-10 11:9:35.5030,0.18,0.876,0.151,-0.13,2.38,-1.93,-0.59,-0.17,-0.11
2021-11-10 11:9:35.5130,0.131,1.011,0.202,0.04,1.43,-2.38,-0.6,-0.21,-0.32
2021-11-10 11:9:35.5240,0.06,1.111,0.221,0.41,0.13,-2.92,-0.6,-0.21,-0.32
2021-11-10 11:9:35.5330,-0.023,1.136,0.221,0.99,-1.03,-3.16,-0.49,-0.11,-0.32
2021-11-10 11:9:35.5440,-0.097,1.102,0.209,1.76,-1.56,-3.18,-0.35,0.14,-0.24
2021-11-10 11:9:35.5540,-0.153,1.031,0.182,2.53,-1.4,-3.08,-0.15,0.85,-0.08
2021-11-10 11:9:35.5630,-0.19,0.927,0.155,3.14,-0.83,-2.84,-0.15,0.85,-0.08
2021-11-10 11:9:35.5730,-0.198,0.832,0.143,3.59,0.09,-2.51,-0.14,1.34,-0.07
2021-11-10 11:9:35.5820,-0.182,0.78,0.151,3.78,1.13,-2.29,-0.14,1.34,-0.07
2021-11-10 11:9:35.5940,-0.141,0.775,0.159,3.72,1.8,-2.26,-0.2,1.49,-0.12
2021-11-10 11:9:35.6020,-0.076,0.818,0.159,3.4,2.04,-2.31,-0.27,1.6,-0.18
2021-11-10 11:9:35.6130,-0.008,0.891,0.16,2.84,1.79,-2.28,-0.3,1.71,-0.22
2021-11-10 11:9:35.6240,0.053,0.958,0.155,2.15,1.15,-2.22,-0.24,1.92,-0.15
2021-11-10 11:9:35.6330,0.114,1.011,0.151,1.52,0.45,-2.13,-0.17,2.02,-0.09
2021-11-10 11:9:35.6430,0.163,1.032,0.15,0.93,-0.13,-2.02,-0.17,2.02,-0.09
2021-11-10 11:9:35.6530,0.204,1.011,0.142,0.39,-0.47,-1.96,-0.09,2.11,-0.03
2021-11-10 11:9:35.6630,0.233,0.965,0.123,-0.02,-0.41,-1.88,-0.01,2.18,0.02
2021-11-10 11:9:35.6730,0.254,0.919,0.097,-0.34,-0.02,-1.69,0.03,2.22,0.03
2021-11-10 11:9:35.6820,0.277,0.878,0.06,-0.56,0.44,-1.42,0.01,2.22,0.0
2021-11-10 11:9:35.6920,0.296,0.847,0.008,-0.77,0.87,-1.06,-0.08,2.16,-0.07
2021-11-10 11:9:35.7030,0.309,0.835,-0.024,-0.98,1.22,-0.53,-0.17,2.04,-0.16
2021-11-10 11:9:35.7130,0.32,0.843,-0.044,-1.14,1.41,-0.07,-0.2,1.95,-0.23
2021-11-10 11:9:35.7230,0.324,0.863,-0.07,-1.29,1.42,0.19,-0.19,1.87,-0.27
2021-11-10 11:9:35.7330,0.322,0.869,-0.09,-1.37,1.24,0.48,-0.16,1.8,-0.28
2021-11-10 11:9:35.7420,0.309,0.867,-0.111,-1.39,1.12,0.74,-0.07,1.66,-0.26
2021-11-10 11:9:35.7520,0.299,0.862,-0.126,-1.34,1.13,0.98,-0.07,1.66,-0.26
2021-11-10 11:9:35.7630,0.3,0.865,-0.137,-1.22,1.18,1.2,-0.01,1.59,-0.25
2021-11-10 11:9:35.7720,0.298,0.878,-0.15,-1.23,1.19,1.32,0.04,1.53,-0.27
2021-11-10 11:9:35.7820,0.299,0.893,-0.161,-1.25,1.11,1.47,0.08,1.48,-0.31
2021-11-10 11:9:35.7930,0.301,0.907,-0.158,-1.28,0.96,1.61,0.1,1.43,-0.35
2021-11-10 11:9:35.8020,0.312,0.917,-0.142,-1.32,0.82,1.65,0.11,1.39,-0.38
2021-11-10 11:9:35.8130,0.331,0.927,-0.126,-1.44,0.71,1.55,0.12,1.35,-0.39
2021-11-10 11:9:35.8220,0.358,0.938,-0.122,-1.64,0.63,1.38,0.1,1.31,-0.37
2021-11-10 11:9:35.8330,0.389,0.952,-0.158,-1.9,0.53,1.29,0.1,1.25,-0.33
2021-11-10 11:9:35.8420,0.424,0.961,-0.191,-2.22,0.41,1.5,0.1,1.2,-0.26
2021-11-10 11:9:35.8520,0.461,0.958,-0.213,-2.58,0.29,1.91,0.08,1.12,-0.1346486210823059
2021-11-10 11:9:35.8620,0.499,0.948,-0.226,-2.94,0.28,2.14,-0.02,0.84,-0.09
2021-11-10 11:9:35.8730,0.531,0.938,-0.243,-3.34,0.36,2.33,-0.02,0.84,-0.09
2021-11-10 11:9:35.8820,0.56,0.936,-0.274,-3.67,0.47,2.46,-0.08,0.64,-0.05
2021-11-10 11:9:35.8930,0.582,0.945,-0.301,-3.98,0.52,2.76,-0.16,0.43,-0.03
2021-11-10 11:9:35.9020,0.584,0.97,-0.314,-4.23,0.47,3.08,-0.24,0.26,-0.01
2021-11-10 11:9:35.9120,0.558,1.015,-0.311,-4.34,0.3,3.28,-0.35,0.13,0.01
2021-11-10 11:9:35.9220,0.516,1.08,-0.271,-3.81,-0.63,3.19,-0.53,-0.1,0.01
2021-11-10 11:9:35.9330,0.465,1.157,-0.215,-3.81,-0.63,3.19,-0.53,-0.1,0.01
2021-11-10 11:9:35.9420,0.391,1.247,-0.154,-3.34,-1.36,2.68,-0.6,-0.16,0.03
2021-11-10 11:9:35.9510,0.276,1.352,-0.055,-2.72,-2.19,2.2,-0.57,-0.24,0.06
2021-11-10 11:9:35.9620,0.114,1.422,0.068,-1.75,-3.19,1.43,-0.47,-0.31,0.12
2021-11-10 11:9:35.9710,0.001,1.41,0.174,-0.27,-4.1,0.29,-0.41,-0.34,0.27
2021-11-10 11:9:35.9820,-0.025,1.35,0.276,1.21,-4.29,-0.78,-0.28,-0.38,0.43
2021-11-10 11:9:35.9920,-0.045,1.276,0.318,1.75,-3.83,-1.82,-0.08,-0.47,0.55
2021-11-10 11:9:36.0020,-0.073,1.197,0.337,1.97,-3.15,-2.49,0.13,-0.55,0.64
2021-11-10 11:9:36.0120,-0.117,1.146,0.378,2.3,-2.37,-2.71,0.35,-0.53,0.71
2021-11-10 11:9:36.0210,-0.178,1.116,0.413,2.71,-1.77,-3.08,0.56,-0.39,0.78
2021-11-10 11:9:36.0320,-0.201,1.109,0.409,3.38,-1.42,-3.59,0.77,-0.16,0.83
2021-11-10 11:9:36.0420,-0.193,1.123,0.384,3.88,-1.26,-3.77,0.98,0.11,0.79
2021-11-10 11:9:36.0510,-0.195,1.121,0.342,3.91,-1.37,-3.67,1.17,0.39,0.75
2021-11-10 11:9:36.0620,-0.199,1.121,0.264,3.97,-1.44,-3.46,1.3,0.7,0.73
2021-11-10 11:9:36.0720,-0.174,1.149,0.167,4.09,-1.39,-2.92,1.35,0.99,0.7
2021-11-10 11:9:36.0820,-0.135,1.162,0.087,4.03,-1.61,-2.13,1.34,1.22,0.67
2021-11-10 11:9:36.0920,-0.092,1.148,0.028,3.74,-1.84,-1.32,1.32,1.41,0.64
2021-11-10 11:9:36.1020,-0.026,1.122,-0.03,3.4,-1.82,-0.8,1.26,1.52,0.6
2021-11-10 11:9:36.1120,0.079,1.094,-0.081,2.93,-1.6,-0.3,1.18,1.55,0.53
2021-11-10 11:9:36.1220,0.195,1.053,-0.135,2.08,-1.36,0.15,0.97,1.26,0.32
2021-11-10 11:9:36.1320,0.298,0.994,-0.178,0.99,-1.03,0.61,0.97,1.26,0.32
2021-11-10 11:9:36.1420,0.38,0.918,-0.186,-0.06,-0.53,1.05,0.85,1.0,0.2
2021-11-10 11:9:36.1520,0.453,0.875,-0.194,-0.91,0.17,1.2,0.71,0.33,-0.05
2021-11-10 11:9:36.1630,0.506,0.87,-0.216,-1.65,0.76,1.15,0.71,0.33,-0.05
2021-11-10 11:9:36.1720,0.519,0.871,-0.226,-2.29,0.92,1.31,0.63,-0.07,-0.17
2021-11-10 11:9:36.1810,0.526,0.87,-0.231,-2.56,0.89,1.37,0.55,-0.47,-0.21
2021-11-10 11:9:36.1920,0.507,0.867,-0.214,-2.66,0.91,1.4,0.48,-0.77,-0.21
2021-11-10 11:9:36.2010,0.451,0.84,-0.205,-2.64,0.91,1.23,0.44,-0.98,-0.19
2021-11-10 11:9:36.2120,0.371,0.796,-0.19,-2.22,1.08,1.03,0.41,-1.13,-0.17
2021-11-10 11:9:36.2210,0.286,0.751,-0.176,-1.57,1.46,0.87,0.38,-1.2,-0.15
2021-11-10 11:9:36.2310,0.234,0.743,-0.199,-0.7,1.94,0.62,0.34,-1.28,-0.15
2021-11-10 11:9:36.2410,0.18,0.749,-0.215,-0.12,2.17,0.65,0.15,-1.32,-0.22
2021-11-10 11:9:36.2510,0.118,0.749,-0.206,0.34,2.12,0.85,0.15,-1.32,-0.22
2021-11-10 11:9:36.2620,0.066,0.744,-0.179,0.88,2.09,0.82,0.1,-1.19,-0.19
2021-11-10 11:9:36.2720,0.047,0.767,-0.182,1.45,2.16,0.52,0.06,-1.04,-0.14
2021-11-10 11:9:36.2820,0.041,0.78,-0.18,1.71,2.03,0.42,0.04,-0.92,-0.09
2021-11-10 11:9:36.2920,0.048,0.787,-0.174,1.81,1.84,0.44,0.01,-0.78,-0.05
2021-11-10 11:9:36.3010,0.073,0.781,-0.196,1.77,1.75,0.33,-0.02,-0.71,-0.01
2021-11-10 11:9:36.3120,0.112,0.781,-0.207,1.6,1.77,0.44,-0.09,-0.6,0.0
2021-11-10 11:9:36.3210,0.142,0.766,-0.21,1.21,1.8,0.63,-0.09,-0.6,0.0
2021-11-10 11:9:36.3310,0.168,0.738,-0.223,0.88,1.85,0.65,-0.12,-0.56,-0.01
2021-11-10 11:9:36.3410,0.191,0.721,-0.245,0.62,2.12,0.74,-0.16,-0.54,-0.03
2021-11-10 11:9:36.3510,0.196,0.706,-0.265,0.34,2.34,0.94,-0.19,-0.53,-0.04
2021-11-10 11:9:36.3610,0.202,0.696,-0.294,0.23,2.48,1.15,-0.23,-0.51,-0.04
2021-11-10 11:9:36.3710,0.213,0.707,-0.324,0.19,2.62,1.41,-0.26,-0.52,-0.03
2021-11-10 11:9:36.3820,0.222,0.728,-0.338,0.09,2.6,1.73,-0.27,-0.54,-0.0
2021-11-10 11:9:36.3910,0.241,0.746,-0.349,-0.01,2.41,1.95,-0.27,-0.59,0.03
2021-11-10 11:9:36.4010,0.257,0.762,-0.345,-0.17,2.22,2.06,-0.25,-0.65,0.07
2021-11-10 11:9:36.4110,0.273,0.785,-0.328,-0.34,2.07,2.12,-0.21,-0.69,0.13
2021-11-10 11:9:36.4210,0.294,0.819,-0.304,-0.48,1.88,1.96,-0.17,-0.75,0.19
2021-11-10 11:9:36.4310,0.322,0.852,-0.267,-0.65,1.58,1.78,-0.17,-0.8,0.22
2021-11-10 11:9:36.4410,0.34,0.883,-0.224,-0.91,1.22,1.44,-0.25,-0.88,0.23
2021-11-10 11:9:36.4510,0.321,0.941,-0.165,-1.13,0.94,1.08,-0.37,-1.01,0.22
2021-11-10 11:9:36.4600,0.247,1.045,-0.1,-1.12,0.51,0.56,-0.4,-1.14,0.18
2021-11-10 11:9:36.4720,0.167,1.17,-0.082,-0.57,-0.35,-0.07,-0.32,-1.18,0.13
2021-11-10 11:9:36.4810,0.109,1.279,-0.148,0.26,-1.54,-0.51,-0.29,-1.09,0.03
2021-11-10 11:9:36.4910,0.05,1.355,-0.231,0.87,-2.7,-0.11,-0.29,-0.82,-0.07
2021-11-10 11:9:36.5010,0.026,1.403,-0.309,1.44,-3.56,0.7,-0.23,-0.43,-0.16
2021-11-10 11:9:36.5110,0.028,1.393,-0.401,1.81,-4.15,1.5,-0.1,-0.01,-0.22
2021-11-10 11:9:36.5210,0.039,1.346,-0.465,1.83,-4.27,2.34,0.14,0.28,-0.24
2021-11-10 11:9:36.5310,0.073,1.311,-0.468,1.75,-3.88,3.13,0.46,0.39,-0.27
2021-11-10 11:9:36.5410,0.131,1.287,-0.434,1.48,-3.46,3.32,0.79,0.36,-0.32
2021-11-10 11:9:36.5500,0.22,1.225,-0.399,1.0,-3.25,3.0,0.94,0.34,-0.31
2021-11-10 11:9:36.5610,0.279,1.192,-0.383,0.19,-2.8,2.53,0.99,0.3,-0.19
2021-11-10 11:9:36.5710,0.265,1.31,-0.291,-0.62,-2.23,2.26,1.15,0.17,-0.12
2021-11-10 11:9:36.5800,0.26,1.575,-0.162,-0.7,-2.75,1.6,1.3,0.14,-0.2
2021-11-10 11:9:36.5900,0.323,1.818,-0.087,-0.55,-4.96,0.24,1.02,0.36,-0.37
2021-11-10 11:9:36.6000,0.44,1.795,-0.117,-0.91,-7.67,-0.88,0.49,0.56,-0.54
2021-11-10 11:9:36.6100,0.407,1.403,-0.066,-2.04,-8.71,-0.84,0.13,0.75,-0.58
2021-11-10 11:9:36.6210,0.153,0.951,0.005,-2.55,-6.06,-0.93,0.19,0.81,-0.46
2021-11-10 11:9:36.6310,-0.073,0.718,0.008,-0.73,-1.35,-1.72,0.52,0.73,-0.34
2021-11-10 11:9:36.6410,-0.172,0.597,-0.069,1.87,1.75,-2.12,0.75,0.47,-0.23
2021-11-10 11:9:36.6510,-0.156,0.534,-0.138,3.25,3.18,-1.67,0.72,0.19,-0.07
2021-11-10 11:9:36.6610,-0.062,0.544,-0.15,3.55,4.03,-0.89,0.5,0.06,0.06
2021-11-10 11:9:36.6700,0.039,0.603,-0.128,2.81,4.18,-0.63,0.24,0.05,0.14
2021-11-10 11:9:36.6800,0.118,0.659,-0.069,1.82,3.72,-0.71,0.01,0.1,0.18
2021-11-10 11:9:36.6900,0.176,0.708,-0.012,0.99,3.11,-1.17,-0.2,0.14,0.16
2021-11-10 11:9:36.7000,0.217,0.774,0.029,0.35,2.64,-1.75,-0.38,0.13,0.14
2021-11-10 11:9:36.7110,0.249,0.886,0.042,-0.08,2.11,-2.16,-0.52,0.02,0.09
2021-11-10 11:9:36.7210,0.25,1.008,0.04,-0.45,1.18,-2.35,-0.61,-0.12,0.01
2021-11-10 11:9:36.7300,0.224,1.096,0.058,-0.59,-0.02,-2.3,-0.65,-0.23,-0.08
2021-11-10 11:9:36.7400,0.177,1.11,0.089,-0.45,-1.05,-2.31,-0.66,-0.29,-0.12
2021-11-10 11:9:36.7500,0.118,1.075,0.11,-0.06,-1.47,-2.55,-0.61,-0.26,-0.12
2021-11-10 11:9:36.7600,0.052,1.022,0.096,0.46,-1.23,-2.77,-0.5,-0.11,-0.09
2021-11-10 11:9:36.7700,0.0,0.965,0.048,1.1,-0.75,-2.74,-0.41,0.07,-0.08
2021-11-10 11:9:36.7800,-0.041,0.903,-0.003,1.67,-0.19,-2.32,-0.35,0.23,-0.08
2021-11-10 11:9:36.7900,-0.075,0.839,-0.044,2.1,0.4,-1.76,-0.36,0.4,-0.07
2021-11-10 11:9:36.8000,-0.096,0.796,-0.071,2.46,1.04,-1.28,-0.46,0.79,0.02
2021-11-10 11:9:36.8100,-0.092,0.783,-0.063,2.74,1.58,-0.89,-0.46,0.79,0.02
2021-11-10 11:9:36.8210,-0.05,0.792,-0.044,2.84,1.81,-0.78,-0.51,0.95,0.07
2021-11-10 11:9:36.8300,0.019,0.821,-0.011,2.58,1.81,-0.86,-0.55,1.05,0.1
2021-11-10 11:9:36.8400,0.089,0.864,0.017,2.01,1.6,-1.07,-0.55,1.09,0.1
2021-11-10 11:9:36.8500,0.144,0.904,0.038,0.75,0.81,-1.46,-0.52,1.07,0.1
2021-11-10 11:9:36.8600,0.198,0.934,0.048,0.75,0.81,-1.46,-0.47,1.05,0.09
2021-11-10 11:9:36.8700,0.236,0.947,0.05,0.24,0.47,-1.56,-0.43,1.02,0.08
2021-11-10 11:9:36.8800,0.253,0.941,0.056,-0.2,0.27,-1.52,-0.4,1.02,0.05
2021-11-10 11:9:36.8910,0.251,0.919,0.051,-0.41,0.26,-1.52,-0.36,1.06,0.02
2021-11-10 11:9:36.9000,0.244,0.9,0.035,-0.45,0.44,-1.47,-0.3,1.12,-0.01
2021-11-10 11:9:36.9100,0.242,0.888,0.009,-0.38,0.66,-1.3,-0.2,1.24,-0.1
2021-11-10 11:9:36.9200,0.251,0.888,-0.026,-0.32,0.8,-1.04,-0.2,1.24,-0.1
2021-11-10 11:9:36.9290,0.257,0.906,-0.06,-0.38,0.86,-0.68,-0.17,1.3,-0.15
2021-11-10 11:9:36.9400,0.265,0.931,-0.093,-0.47,0.76,-0.29,-0.14,1.32,-0.18
2021-11-10 11:9:36.9500,0.285,0.932,-0.108,-0.52,0.51,0.08,-0.12,1.31,-0.2
2021-11-10 11:9:36.9600,0.32,0.894,-0.125,-0.68,0.38,0.34,-0.11,1.29,-0.19
2021-11-10 11:9:36.9700,0.353,0.84,-0.147,-0.99,0.62,0.5,-0.09,1.26,-0.17
2021-11-10 11:9:36.9800,0.38,0.792,-0.172,-1.33,1.14,0.75,-0.06,1.21,-0.18
2021-11-10 11:9:36.9900,0.402,0.76,-0.207,-1.64,1.64,1.0,-0.05,1.14,-0.21
2021-11-10 11:9:37.0000,0.411,0.752,-0.234,-1.9,2.04,1.34,-0.07,1.04,-0.28
2021-11-10 11:9:37.0100,0.415,0.771,-0.248,-2.06,2.22,1.68,-0.12,0.92,-0.37
2021-11-10 11:9:37.0200,0.413,0.813,-0.242,-2.15,2.14,1.9,-0.18,0.74,-0.52
2021-11-10 11:9:37.0300,0.397,0.876,-0.22,-2.19,1.81,1.96,-0.18,0.74,-0.52
2021-11-10 11:9:37.0400,0.364,0.947,-0.206,-2.15,1.28,1.8,-0.21,0.71,-0.56
2021-11-10 11:9:37.0500,0.323,1.002,-0.182,-1.93,0.6,1.67,-0.26,0.7,-0.61
2021-11-10 11:9:37.0590,0.279,1.025,-0.146,-1.6,-0.02,1.53,-0.26,0.7,-0.61
2021-11-10 11:9:37.0700,0.244,1.033,-0.117,-1.24,-0.33,1.24,-0.27,0.73,-0.62
2021-11-10 11:9:37.0790,0.238,1.025,-0.099,-0.89,-0.45,0.96,-0.29,0.78,-0.61
2021-11-10 11:9:37.0890,0.257,1.001,-0.097,-0.77,-0.43,0.77,-0.3,0.87,-0.56
2021-11-10 11:9:37.0990,0.313,0.968,-0.108,-0.91,-0.24,0.75,-0.31,0.92,-0.44
2021-11-10 11:9:37.1100,0.397,0.94,-0.136,-1.35,0.08,0.84,-0.33,0.87,-0.3
2021-11-10 11:9:37.1190,0.487,0.915,-0.178,-2.11,0.38,1.11,-0.35,0.74,-0.16
2021-11-10 11:9:37.1290,0.56,0.907,-0.23,-3.0,0.64,1.5,-0.4,0.58,-0.03
2021-11-10 11:9:37.1380,0.588,0.932,-0.273,-3.8,0.8,2.05,-0.45,0.45,0.08
2021-11-10 11:9:37.1490,0.567,0.988,-0.279,-4.26,0.69,2.59,-0.63,0.28,0.22
2021-11-10 11:9:37.1600,0.522,1.066,-0.261,-4.19,0.23,2.86,-0.71,0.21,0.23
2021-11-10 11:9:37.1700,0.47,1.161,-0.215,-3.79,-0.46,2.82,-0.75,0.15,0.21
2021-11-10 11:9:37.1790,0.425,1.256,-0.144,-3.25,-1.35,2.56,-0.75,0.15,0.21
2021-11-10 11:9:37.1900,0.364,1.354,-0.078,-2.78,-2.3,2.0,-0.72,0.13,0.22
2021-11-10 11:9:37.2000,0.274,1.446,-0.005,-2.24,-3.26,1.39,-0.67,0.14,0.24
2021-11-10 11:9:37.2090,0.179,1.512,0.078,-1.44,-4.2,0.77,-0.42,0.16,0.28
2021-11-10 11:9:37.2200,0.086,1.525,0.144,-0.45,-4.98,0.04,-0.42,0.16,0.28
2021-11-10 11:9:37.2290,-0.019,1.492,0.214,0.46,-5.32,-0.67,-0.2,0.19,0.32
2021-11-10 11:9:37.2390,-0.108,1.413,0.321,1.5,-5.17,-1.26,0.26,0.3,0.54
2021-11-10 11:9:37.2490,-0.169,1.287,0.4,2.51,-4.57,-2.21,0.26,0.3,0.54
2021-11-10 11:9:37.2580,-0.203,1.156,0.419,3.27,-3.5,-3.22,0.52,0.41,0.66
2021-11-10 11:9:37.2690,-0.202,1.04,0.41,3.77,-2.19,-3.65,0.76,0.48,0.76
2021-11-10 11:9:37.2780,-0.176,0.933,0.364,3.96,-1.02,-3.73,0.92,0.55,0.83
2021-11-10 11:9:37.2880,-0.135,0.858,0.297,3.88,0.07,-3.5,1.03,0.65,0.87
2021-11-10 11:9:37.2990,-0.092,0.835,0.218,3.58,0.93,-2.99,1.09,0.8,0.9
2021-11-10 11:9:37.3090,-0.048,0.873,0.126,3.27,1.35,-2.34,1.22,1.19,0.96
2021-11-10 11:9:37.3190,-0.015,0.953,0.023,2.91,1.17,-1.58,1.22,1.19,0.96
2021-11-10 11:9:37.3290,0.035,1.078,-0.075,2.66,0.5,-0.68,1.28,1.34,0.95
2021-11-10 11:9:37.3380,0.086,1.213,-0.134,2.32,-0.58,0.23,1.33,1.42,0.86
2021-11-10 11:9:37.3490,0.127,1.296,-0.155,1.89,-1.96,0.9,1.3,1.41,0.7
2021-11-10 11:9:37.3590,0.187,1.29,-0.172,1.07,-3.34,1.21,1.06,1.04,0.25
2021-11-10 11:9:37.3690,0.282,1.216,-0.187,0.27,-2.84,1.3,0.94,0.8,0.02
2021-11-10 11:9:37.3790,0.367,1.086,-0.2,0.27,-2.84,1.3,0.94,0.8,0.02
2021-11-10 11:9:37.3890,0.417,0.94,-0.208,-0.68,-1.76,1.37,0.82,0.55,-0.14
2021-11-10 11:9:37.3990,0.461,0.836,-0.205,-1.29,-0.31,1.43,0.71,0.32,-0.21
2021-11-10 11:9:37.4080,0.508,0.799,-0.23,-1.72,0.92,1.35,0.55,-0.26,-0.26
2021-11-10 11:9:37.4190,0.526,0.809,-0.256,-2.22,1.53,1.42,0.55,-0.26,-0.26
2021-11-10 11:9:37.4290,0.502,0.834,-0.242,-2.58,1.57,1.67,0.52,-0.61,-0.3
2021-11-10 11:9:37.4390,0.441,0.834,-0.201,-2.52,1.33,1.63,0.51,-0.91,-0.3
2021-11-10 11:9:37.4490,0.367,0.817,-0.176,-2.08,1.23,1.2,0.48,-1.24,-0.22
2021-11-10 11:9:37.4600,0.292,0.795,-0.164,-1.41,1.34,0.79,0.48,-1.24,-0.22
2021-11-10 11:9:37.4680,0.212,0.772,-0.137,-0.71,1.55,0.59,0.46,-1.25,-0.18
2021-11-10 11:9:37.4790,0.134,0.755,-0.124,0.04,1.78,0.3,0.44,-1.17,-0.14
2021-11-10 11:9:37.4890,0.073,0.755,-0.16,0.78,1.98,0.0,0.44,-1.1,-0.11
2021-11-10 11:9:37.4990,0.055,0.788,-0.193,1.48,2.06,0.12,0.43,-1.06,-0.1
2021-11-10 11:9:37.5090,0.049,0.816,-0.215,1.76,1.84,0.47,0.3,-0.85,-0.1
2021-11-10 11:9:37.5190,0.046,0.827,-0.219,1.83,1.5,0.64,0.3,-0.85,-0.1
2021-11-10 11:9:37.5290,0.057,0.822,-0.224,1.83,1.32,0.73,0.19,-0.71,-0.08
2021-11-10 11:9:37.5390,0.095,0.829,-0.237,1.82,1.34,0.69,-0.0,-0.56,-0.05
2021-11-10 11:9:37.5490,0.124,0.819,-0.236,1.47,1.32,0.82,-0.07,-0.55,-0.06
2021-11-10 11:9:37.5590,0.157,0.788,-0.243,1.15,1.32,0.84,-0.07,-0.55,-0.06
2021-11-10 11:9:37.5680,0.195,0.755,-0.261,0.84,1.56,0.85,-0.15,-0.53,-0.09
2021-11-10 11:9:37.5780,0.219,0.726,-0.282,0.45,1.91,1.02,-0.24,-0.53,-0.13
2021-11-10 11:9:37.5880,0.226,0.696,-0.319,0.12,2.21,1.22,-0.32,-0.53,-0.17
2021-11-10 11:9:37.5980,0.23,0.676,-0.346,-0.01,2.51,1.53,-0.39,-0.53,-0.18
2021-11-10 11:9:37.6080,0.241,0.674,-0.354,-0.08,2.77,1.93,-0.41,-0.51,-0.14
2021-11-10 11:9:37.6180,0.263,0.686,-0.351,-0.17,2.87,2.07,-0.41,-0.51,-0.14
2021-11-10 11:9:37.6280,0.293,0.696,-0.354,-0.37,2.8,2.12,-0.39,-0.62,-0.06
2021-11-10 11:9:37.6370,0.324,0.698,-0.369,-0.65,2.69,2.1,-0.39,-0.62,-0.06
2021-11-10 11:9:37.6480,0.357,0.697,-0.354,-0.96,2.64,2.27,-0.44,-0.72,-0.01
2021-11-10 11:9:37.6580,0.381,0.706,-0.318,-1.3,2.66,2.3,-0.5,-0.81,0.05
2021-11-10 11:9:37.6670,0.4,0.736,-0.283,-1.57,2.63,2.0,-0.54,-0.93,0.11
2021-11-10 11:9:37.6780,0.409,0.79,-0.239,-1.77,2.42,1.7,-0.6,-1.05,0.15
2021-11-10 11:9:37.6890,0.395,0.874,-0.195,-1.9,1.98,1.34,-0.69,-1.22,0.18
2021-11-10 11:9:37.6970,0.303,1.0,-0.096,-1.89,1.3,0.95,-0.7,-1.45,0.17
2021-11-10 11:9:37.7080,0.174,1.137,-0.026,-1.32,0.2,0.27,-0.55,-1.5,0.08
2021-11-10 11:9:37.7180,0.081,1.266,-0.07,-0.05,-1.13,-0.71,-0.55,-1.5,0.08
2021-11-10 11:9:37.7290,0.011,1.384,-0.185,0.97,-2.44,-0.63,-0.35,-0.71,-0.06
2021-11-10 11:9:37.7380,-0.025,1.484,-0.322,1.72,-3.62,0.29,-0.35,-0.71,-0.06
2021-11-10 11:9:37.7480,0.008,1.494,-0.455,2.23,-4.72,1.63,-0.19,-0.23,-0.12
2021-11-10 11:9:37.7570,0.07,1.356,-0.564,1.54,-4.42,4.13,0.36,0.18,-0.12
2021-11-10 11:9:37.7680,0.094,1.193,-0.585,1.15,-2.69,4.74,0.78,0.11,-0.13
2021-11-10 11:9:37.7780,0.113,1.091,-0.463,1.15,-2.69,4.74,0.78,0.11,-0.13
2021-11-10 11:9:37.7880,0.155,1.003,-0.331,0.99,-1.52,3.94,0.83,0.03,-0.03
2021-11-10 11:9:37.7980,0.206,1.035,-0.361,0.66,-0.6,2.32,0.83,0.03,-0.03
2021-11-10 11:9:37.8080,0.276,1.266,-0.368,0.17,-0.3,1.96,0.8,-0.23,-0.05
2021-11-10 11:9:37.8170,0.362,1.616,-0.25,-0.43,-1.87,2.29,0.84,-0.54,-0.19
2021-11-10 11:9:37.8280,0.39,1.92,-0.039,-1.32,-5.02,1.53,0.6,-0.47,-0.38
2021-11-10 11:9:37.8380,0.342,1.918,0.141,-1.91,-8.43,-0.36,-0.26,0.47,-0.46
2021-11-10 11:9:37.8480,0.231,1.551,0.193,-1.76,-9.8,-2.33,-0.26,0.47,-0.46
2021-11-10 11:9:37.8580,0.088,1.15,0.219,-0.88,-7.32,-3.36,-0.23,0.59,-0.3
2021-11-10 11:9:37.8680,-0.088,0.938,0.247,0.38,-3.03,-3.42,0.08,0.59,-0.21
2021-11-10 11:9:37.8780,-0.198,0.769,0.149,2.04,-0.32,-3.96,0.43,0.3,-0.14
2021-11-10 11:9:37.8880,-0.141,0.671,0.028,3.5,1.36,-3.45,0.59,-0.04,-0.03
2021-11-10 11:9:37.8980,-0.0,0.65,-0.022,3.6,2.7,-2.27,0.5,-0.21,0.08
2021-11-10 11:9:37.9070,0.102,0.622,-0.018,2.33,3.06,-1.51,0.31,-0.26,0.17
2021-11-10 11:9:37.9180,0.162,0.6,0.016,1.16,3.27,-1.42,0.08,-0.22,0.23
2021-11-10 11:9:37.9280,0.202,0.605,0.048,0.46,3.54,-1.67,-0.17,-0.18,0.25
2021-11-10 11:9:37.9370,0.219,0.652,0.062,0.03,3.61,-2.0,-0.58,-0.32,0.15
2021-11-10 11:9:37.9470,0.207,0.756,0.07,-0.23,3.33,-2.16,-0.7,-0.44,0.01
2021-11-10 11:9:37.9580,0.171,0.884,0.104,-0.21,2.52,-2.18,-0.7,-0.44,0.01
2021-11-10 11:9:37.9680,0.124,1.012,0.157,0.05,1.31,-2.32,-0.76,-0.48,-0.16
2021-11-10 11:9:37.9770,0.067,1.093,0.201,0.44,0.05,-2.75,-0.77,-0.43,-0.28
2021-11-10 11:9:37.9880,0.003,1.116,0.23,0.94,-0.96,-3.17,-0.71,-0.28,-0.33
2021-11-10 11:9:37.9970,-0.072,1.092,0.223,1.51,-1.37,-3.46,-0.58,-0.02,-0.31
2021-11-10 11:9:38.0070,-0.145,1.035,0.185,2.18,-1.28,-3.5,-0.3,0.58,-0.21
2021-11-10 11:9:38.0180,-0.204,0.965,0.142,2.91,-0.81,-3.16,-0.3,0.58,-0.21
2021-11-10 11:9:38.0270,-0.228,0.896,0.103,3.55,-0.15,-2.71,-0.21,0.84,-0.13
2021-11-10 11:9:38.0370,-0.204,0.849,0.082,3.95,0.56,-2.26,-0.18,1.05,-0.06
2021-11-10 11:9:38.0470,-0.146,0.828,0.091,3.89,1.11,-1.92,-0.2,1.46,0.05
2021-11-10 11:9:38.0570,-0.063,0.836,0.103,3.46,1.42,-1.87,-0.2,1.46,0.05
2021-11-10 11:9:38.0670,0.01,0.866,0.115,2.73,1.45,-1.97,-0.16,1.73,0.1
2021-11-10 11:9:38.0770,0.077,0.91,0.116,1.97,1.21,-2.02,-0.16,1.73,0.1
2021-11-10 11:9:38.0880,0.144,0.953,0.107,1.36,0.84,-2.05,-0.13,1.75,0.09
2021-11-10 11:9:38.0970,0.184,0.974,0.102,0.67,0.38,-1.92,-0.11,1.72,0.07
2021-11-10 11:9:38.1080,0.233,0.975,0.085,0.23,0.08,-1.83,-0.09,1.68,0.04
2021-11-10 11:9:38.1180,0.266,0.959,0.066,-0.19,0.0,-1.69,-0.07,1.66,0.01
2021-11-10 11:9:38.1270,0.291,0.935,0.044,-0.61,0.1,-1.43,-0.03,1.69,0.01
2021-11-10 11:9:38.1370,0.325,0.919,0.001,-0.79,0.33,-1.24,0.02,1.71,-0.08
2021-11-10 11:9:38.1470,0.337,0.898,-0.034,-1.15,0.51,-0.84,0.02,1.71,-0.08
2021-11-10 11:9:38.1580,0.341,0.887,-0.064,-1.34,0.7,-0.42,0.02,1.71,-0.14
2021-11-10 11:9:38.1670,0.347,0.89,-0.086,-1.39,0.87,-0.07,-0.01,1.7,-0.22
2021-11-10 11:9:38.1770,0.352,0.885,-0.1,-1.46,0.88,0.2,-0.05,1.64,-0.31
2021-11-10 11:9:38.1860,0.356,0.883,-0.107,-1.54,0.9,0.41,-0.09,1.54,-0.4
2021-11-10 11:9:38.1960,0.361,0.89,-0.112,-1.61,0.96,0.54,-0.1,1.46,-0.44
2021-11-10 11:9:38.2070,0.356,0.904,-0.112,-1.7,0.93,0.63,-0.01,1.37,-0.44
2021-11-10 11:9:38.2170,0.344,0.919,-0.123,-1.73,0.82,0.67,-0.01,1.37,-0.44
2021-11-10 11:9:38.2270,0.318,0.933,-0.137,-1.68,0.67,0.75,0.06,1.35,-0.44
2021-11-10 11:9:38.2370,0.289,0.95,-0.145,-1.51,0.55,0.91,0.14,1.3,-0.51
2021-11-10 11:9:38.2470,0.262,0.964,-0.148,-1.26,0.4,1.02,0.14,1.3,-0.51
2021-11-10 11:9:38.2570,0.232,0.974,-0.151,-1.05,0.25,1.06,0.16,1.31,-0.54
2021-11-10 11:9:38.2660,0.219,0.98,-0.148,-0.8,0.15,1.1,0.18,1.34,-0.55
2021-11-10 11:9:38.2770,0.226,0.971,-0.137,-0.63,0.07,1.11,0.21,1.39,-0.53
2021-11-10 11:9:38.2860,0.249,0.944,-0.136,-0.68,0.09,1.02,0.24,1.47,-0.48
2021-11-10 11:9:38.2960,0.292,0.91,-0.153,-0.88,0.31,0.94,0.25,1.51,-0.41
2021-11-10 11:9:38.3070,0.358,0.871,-0.162,-1.24,0.64,1.06,0.26,1.53,-0.3
2021-11-10 11:9:38.3170,0.445,0.829,-0.174,-1.83,1.0,1.19,0.21,1.51,-0.17
2021-11-10 11:9:38.3270,0.548,0.796,-0.217,-2.61,1.41,1.27,0.12,1.37,-0.04
2021-11-10 11:9:38.3360,0.641,0.783,-0.284,-3.56,1.78,1.57,0.01,1.15,0.07
2021-11-10 11:9:38.3460,0.706,0.794,-0.352,-4.54,1.99,2.19,-0.1,0.85,0.17
2021-11-10 11:9:38.3560,0.734,0.827,-0.389,-5.25,1.96,2.91,-0.23,0.58,0.23
2021-11-10 11:9:38.3670,0.702,0.883,-0.379,-5.66,1.72,3.45,-0.54,0.22,0.25
2021-11-10 11:9:38.3770,0.623,0.963,-0.343,-5.56,1.25,3.59,-0.54,0.08,0.24
2021-11-10 11:9:38.3870,0.538,1.064,-0.274,-4.89,0.56,3.36,-0.65,0.08,0.24
2021-11-10 11:9:38.3970,0.465,1.149,-0.181,-4.01,-0.39,2.9,-0.74,-0.06,0.2
2021-11-10 11:9:38.4070,0.332,1.24,-0.078,-3.25,-1.3,2.11,-0.75,-0.17,0.15
2021-11-10 11:9:38.4170,0.09,1.358,0.013,-2.31,-2.12,1.17,-0.71,-0.23,0.18
2021-11-10 11:9:38.4260,-0.073,1.483,0.156,-0.17,-3.19,0.33,-0.67,-0.27,0.29
2021-11-10 11:9:38.4360,-0.136,1.564,0.315,1.95,-4.44,-0.76,-0.62,-0.18,0.4
2021-11-10 11:9:38.4460,-0.205,1.555,0.377,2.83,-5.49,-2.37,-0.46,-0.03,0.49
2021-11-10 11:9:38.4560,-0.268,1.476,0.395,3.5,-5.74,-3.33,-0.23,0.15,0.59
2021-11-10 11:9:38.4670,-0.319,1.366,0.432,4.23,-5.2,-3.53,0.02,0.38,0.68
2021-11-10 11:9:38.4760,-0.358,1.267,0.488,4.83,-4.2,-3.82,0.32,0.66,0.74
2021-11-10 11:9:38.4860,-0.353,1.186,0.517,5.36,-3.16,-4.36,0.62,1.03,0.78
2021-11-10 11:9:38.4950,-0.313,1.107,0.48,5.58,-2.34,-4.88,0.88,1.45,0.8
2021-11-10 11:9:38.5060,-0.273,1.046,0.38,5.33,-1.57,-4.8,1.09,1.87,0.79
2021-11-10 11:9:38.5160,-0.22,1.02,0.252,5.01,-0.89,-4.12,1.26,2.24,0.8
2021-11-10 11:9:38.5260,-0.139,1.026,0.133,4.64,-0.53,-2.98,1.4,2.59,0.81
2021-11-10 11:9:38.5350,-0.054,1.062,0.049,4.02,-0.49,-1.84,1.53,2.87,0.83
2021-11-10 11:9:38.5460,0.042,1.117,-0.033,3.27,-0.76,-0.95,1.68,2.96,0.73
2021-11-10 11:9:38.5550,0.119,1.161,-0.1,2.44,-1.28,-0.26,1.68,2.96,0.73
2021-11-10 11:9:38.5670,0.2,1.184,-0.16,1.67,-1.8,0.4,1.59,2.77,0.57
2021-11-10 11:9:38.5750,0.28,1.156,-0.184,0.98,-2.13,0.92,1.47,2.47,0.33
2021-11-10 11:9:38.5850,0.333,1.071,-0.168,0.17,-2.1,1.29,1.34,2.14,0.1
2021-11-10 11:9:38.5960,0.392,0.978,-0.184,-0.42,-1.44,1.12,1.22,1.82,-0.04
2021-11-10 11:9:38.6060,0.479,0.898,-0.241,-0.93,-0.51,1.05,1.02,1.13,-0.12
2021-11-10 11:9:38.6160,0.57,0.844,-0.307,-1.69,0.33,1.42,1.02,1.13,-0.12
2021-11-10 11:9:38.6270,0.642,0.816,-0.341,-2.61,0.96,2.02,0.95,0.72,-0.12
2021-11-10 11:9:38.6360,0.65,0.789,-0.362,-3.42,1.32,2.4,0.89,0.28,-0.12
2021-11-10 11:9:38.6450,0.618,0.752,-0.375,-3.77,1.54,2.56,0.8,-0.16,-0.11
2021-11-10 11:9:38.6570,0.562,0.712,-0.37,-3.57,1.86,2.65,0.67,-0.58,-0.11
2021-11-10 11:9:38.6660,0.505,0.683,-0.36,-3.11,2.27,2.59,0.55,-0.94,-0.15
2021-11-10 11:9:38.6770,0.445,0.662,-0.368,-2.58,2.6,2.4,0.4,-1.26,-0.22
2021-11-10 11:9:38.6860,0.363,0.661,-0.348,-2.06,2.83,2.35,0.22,-1.51,-0.3
2021-11-10 11:9:38.6950,0.28,0.677,-0.292,-1.4,2.94,2.3,0.06,-1.55,-0.34
2021-11-10 11:9:38.7060,0.216,0.719,-0.261,-0.6,2.84,1.75,-0.04,-1.5,-0.32
2021-11-10 11:9:38.7160,0.177,0.785,-0.235,0.07,2.55,1.34,-0.06,-1.39,-0.29
2021-11-10 11:9:38.7260,0.149,0.843,-0.22,0.5,1.97,1.03,-0.06,-1.23,-0.25
2021-11-10 11:9:38.7360,0.143,0.895,-0.236,0.78,1.34,0.8,-0.07,-1.03,-0.12
2021-11-10 11:9:38.7450,0.134,0.926,-0.241,0.88,0.84,0.86,-0.08,-0.94,-0.07
2021-11-10 11:9:38.7560,0.119,0.927,-0.24,0.92,0.42,0.94,-0.08,-0.94,-0.07
2021-11-10 11:9:38.7650,0.11,0.874,-0.254,1.02,0.3,0.93,-0.11,-0.93,-0.02
2021-11-10 11:9:38.7750,0.109,0.803,-0.24,1.16,0.63,1.02,-0.16,-0.93,0.04
2021-11-10 11:9:38.7860,0.105,0.719,-0.224,1.16,1.29,1.01,-0.2,-0.89,0.08
2021-11-10 11:9:38.7950,0.108,0.645,-0.238,1.19,2.07,0.79,-0.23,-0.82,0.12
2021-11-10 11:9:38.8050,0.123,0.6,-0.273,1.2,2.87,0.82,-0.28,-0.77,0.13
2021-11-10 11:9:38.8160,0.153,0.58,-0.295,1.11,3.42,1.14,-0.34,-0.74,0.12
2021-11-10 11:9:38.8250,0.191,0.584,-0.312,0.87,3.71,1.44,-0.4,-0.74,0.09
2021-11-10 11:9:38.8350,0.224,0.606,-0.32,0.5,3.75,1.63,-0.45,-0.76,0.07
2021-11-10 11:9:38.8450,0.256,0.638,-0.335,0.16,3.61,1.77,-0.5,-0.78,0.09
2021-11-10 11:9:38.8560,0.282,0.676,-0.335,-0.17,3.32,1.92,-0.57,-0.8,0.13
2021-11-10 11:9:38.8650,0.324,0.715,-0.319,-0.41,2.97,2.04,-0.64,-0.85,0.17
2021-11-10 11:9:38.8750,0.377,0.754,-0.276,-0.75,2.59,1.99,-0.71,-0.92,0.19
2021-11-10 11:9:38.8860,0.434,0.812,-0.226,-1.24,2.22,1.72,-0.78,-1.02,0.2
2021-11-10 11:9:38.8950,0.484,0.907,-0.208,-1.78,1.76,1.26,-0.86,-1.17,0.19
2021-11-10 11:9:38.9050,0.494,1.009,-0.188,-2.32,0.97,1.0,-0.98,-1.39,0.16
2021-11-10 11:9:38.9150,0.443,1.114,-0.09,-2.33,-1.05,0.32,-0.77,-1.62,0.14
2021-11-10 11:9:38.9240,0.354,1.203,-0.037,-1.54,-2.01,-0.48,-0.6,-1.6,0.08
2021-11-10 11:9:38.9350,0.267,1.265,-0.051,-1.54,-2.01,-0.48,-0.6,-1.6,0.08
2021-11-10 11:9:38.9450,0.181,1.308,-0.128,-0.69,-2.71,-0.52,-0.47,-1.45,0.02
2021-11-10 11:9:38.9550,0.117,1.349,-0.24,0.17,-3.18,-0.02,-0.35,-1.15,-0.03
2021-11-10 11:9:38.9650,0.087,1.356,-0.349,0.87,-3.58,1.04,-0.24,-0.79,-0.07
2021-11-10 11:9:38.9750,0.069,1.298,-0.433,1.29,-3.85,2.12,-0.13,-0.46,-0.1
2021-11-10 11:9:38.9850,0.044,1.24,-0.444,1.67,-2.83,3.47,0.37,-0.2,-0.16
2021-11-10 11:9:38.9940,0.04,1.221,-0.401,1.67,-2.83,3.47,0.37,-0.2,-0.16
2021-11-10 11:9:39.0050,0.07,1.218,-0.348,1.81,-2.49,3.13,0.64,-0.15,-0.21
2021-11-10 11:9:39.0150,0.1,1.211,-0.333,1.6,-2.46,2.54,0.72,-0.03,-0.2
2021-11-10 11:9:39.0250,0.119,1.255,-0.344,1.26,-2.4,2.12,0.75,-0.03,-0.12
2021-11-10 11:9:39.0350,0.156,1.414,-0.284,1.03,-2.53,2.17,0.89,-0.08,-0.21
2021-11-10 11:9:39.0450,0.212,1.603,-0.148,0.76,-3.68,1.81,0.89,-0.08,-0.21
2021-11-10 11:9:39.0550,0.256,1.684,-0.006,0.22,-5.62,0.64,0.6,0.08,-0.32
2021-11-10 11:9:39.0650,0.233,1.587,0.09,-0.42,-6.65,-2.02,0.05,0.68,-0.24
2021-11-10 11:9:39.0740,0.16,1.345,0.097,-0.42,-6.65,-2.02,0.05,0.68,-0.24
2021-11-10 11:9:39.0840,0.076,1.103,0.128,0.19,-4.68,-2.38,0.13,0.69,-0.14
2021-11-10 11:9:39.0950,-0.041,0.936,0.144,0.93,-2.13,-2.45,0.33,0.58,-0.08
2021-11-10 11:9:39.1040,-0.106,0.804,0.051,2.01,-0.25,-2.93,0.46,0.3,-0.03
2021-11-10 11:9:39.1150,-0.067,0.73,-0.035,2.96,1.15,-2.38,0.43,0.05,0.01
2021-11-10 11:9:39.1240,0.006,0.693,-0.042,2.92,2.11,-1.39,0.33,-0.06,0.06
2021-11-10 11:9:39.1350,0.073,0.667,-0.012,2.27,2.55,-1.07,0.22,-0.05,0.12
2021-11-10 11:9:39.1450,0.124,0.648,0.024,1.58,2.82,-1.31,0.09,-0.03,0.15
2021-11-10 11:9:39.1540,0.165,0.648,0.064,1.04,3.04,-1.64,-0.08,-0.04,0.17
2021-11-10 11:9:39.1640,0.191,0.679,0.087,0.62,3.13,-2.02,-0.23,-0.11,0.15
2021-11-10 11:9:39.1740,0.198,0.754,0.09,0.31,2.96,-2.3,-0.37,-0.23,0.08
2021-11-10 11:9:39.1840,0.179,0.854,0.092,0.15,2.39,-2.36,-0.48,-0.35,-0.04
2021-11-10 11:9:39.1950,0.141,0.954,0.108,0.23,1.48,-2.31,-0.58,-0.42,-0.16
2021-11-10 11:9:39.2050,0.096,1.032,0.143,0.52,0.47,-2.35,-0.64,-0.25,-0.28
2021-11-10 11:9:39.2140,0.042,1.071,0.171,0.93,-0.37,-2.59,-0.64,-0.25,-0.28
2021-11-10 11:9:39.2240,-0.038,1.056,0.176,1.37,-0.91,-2.86,-0.57,0.03,-0.26
2021-11-10 11:9:39.2340,-0.119,1.013,0.154,2.04,-0.93,-2.95,-0.32,0.7,-0.14
2021-11-10 11:9:39.2440,-0.178,0.959,0.109,2.87,-0.58,-2.79,-0.32,0.7,-0.14
2021-11-10 11:9:39.2540,-0.196,0.909,0.071,3.55,-0.08,-2.37,-0.21,1.0,-0.06
2021-11-10 11:9:39.2630,-0.174,0.88,0.058,3.9,0.46,-1.9,-0.14,1.24,0.02
2021-11-10 11:9:39.2750,-0.115,0.875,0.068,3.85,0.83,-1.63,-0.1,1.46,0.07
2021-11-10 11:9:39.2840,-0.039,0.883,0.078,3.42,0.95,-1.62,-0.05,1.64,0.14
2021-11-10 11:9:39.2940,0.056,0.91,0.069,2.76,0.93,-1.72,-0.02,1.75,0.19
2021-11-10 11:9:39.3040,0.128,0.93,0.067,1.92,0.71,-1.65,0.02,1.82,0.24
2021-11-10 11:9:39.3150,0.201,0.943,0.042,1.13,0.45,-1.57,0.05,1.84,0.27
2021-11-10 11:9:39.3230,0.264,0.943,0.022,0.52,0.32,-1.39,0.07,1.79,0.25
2021-11-10 11:9:39.3350,0.303,0.917,0.014,-0.17,0.22,-1.1,0.09,1.73,0.21
2021-11-10 11:9:39.3440,0.332,0.889,-0.003,-0.57,0.4,-0.97,0.06,1.61,0.07
2021-11-10 11:9:39.3540,0.354,0.866,-0.029,-0.87,0.68,-0.82,0.04,1.55,-0.02
2021-11-10 11:9:39.3640,0.362,0.851,-0.059,-1.1,0.93,-0.56,0.04,1.55,-0.02
2021-11-10 11:9:39.3740,0.372,0.851,-0.085,-1.22,1.12,-0.23,0.01,1.47,-0.11
2021-11-10 11:9:39.3840,0.373,0.865,-0.1,-1.3,1.17,0.08,-0.01,1.41,-0.21
2021-11-10 11:9:39.3940,0.358,0.895,-0.114,-1.4,1.09,0.29,-0.13,1.3,-0.39
2021-11-10 11:9:39.4040,0.344,0.926,-0.119,-1.3,0.87,0.47,-0.13,1.3,-0.39
2021-11-10 11:9:39.4150,0.323,0.942,-0.107,-1.2,0.55,0.62,-0.18,1.26,-0.47
2021-11-10 11:9:39.4240,0.301,0.944,-0.092,-1.06,0.34,0.59,-0.18,1.25,-0.52
2021-11-10 11:9:39.4340,0.278,0.941,-0.087,-0.89,0.29,0.48,-0.14,1.29,-0.53
2021-11-10 11:9:39.4440,0.257,0.94,-0.101,-0.71,0.32,0.43,-0.07,1.34,-0.53
2021-11-10 11:9:39.4540,0.243,0.942,-0.119,-0.53,0.36,0.52,-0.01,1.39,-0.53
2021-11-10 11:9:39.4640,0.222,0.949,-0.12,-0.43,0.36,0.74,0.05,1.42,-0.53
2021-11-10 11:9:39.4740,0.203,0.958,-0.111,-0.3,0.32,0.84,0.1,1.47,-0.53
2021-11-10 11:9:39.4840,0.193,0.954,-0.113,-0.13,0.24,0.79,0.15,1.52,-0.5
2021-11-10 11:9:39.4940,0.193,0.942,-0.133,-0.04,0.23,0.76,0.19,1.59,-0.45
2021-11-10 11:9:39.5030,0.212,0.927,-0.153,-0.02,0.33,0.91,0.21,1.67,-0.39
2021-11-10 11:9:39.5140,0.255,0.917,-0.151,-0.17,0.48,1.14,0.22,1.71,-0.32
2021-11-10 11:9:39.5240,0.317,0.913,-0.137,-0.51,0.61,1.22,0.23,1.74,-0.27
2021-11-10 11:9:39.5340,0.385,0.901,-0.135,-1.1,0.67,1.12,0.23,1.73,-0.2
2021-11-10 11:9:39.5440,0.483,0.878,-0.146,-1.73,0.74,1.04,0.08,1.54,-0.03
2021-11-10 11:9:39.5540,0.586,0.857,-0.182,-2.58,0.94,1.11,0.08,1.54,-0.03
2021-11-10 11:9:39.5640,0.676,0.846,-0.232,-3.6,1.16,1.4,-0.03,1.34,0.04
2021-11-10 11:9:39.5740,0.733,0.849,-0.289,-4.54,1.31,1.87,-0.15,1.06,0.1
2021-11-10 11:9:39.5840,0.736,0.872,-0.316,-5.45,1.19,2.92,-0.41,0.57,0.18
2021-11-10 11:9:39.5930,0.691,0.918,-0.318,-5.45,1.19,2.92,-0.41,0.57,0.18
2021-11-10 11:9:39.6040,0.612,0.982,-0.282,-5.15,0.82,3.1,-0.56,0.44,0.21
2021-11-10 11:9:39.6140,0.534,1.056,-0.24,-4.45,0.25,2.94,-0.71,0.34,0.25
2021-11-10 11:9:39.6240,0.469,1.145,-0.192,-3.61,-0.46,2.59,-0.78,0.21,0.29
2021-11-10 11:9:39.6330,0.362,1.248,-0.134,-2.92,-1.26,2.26,-0.78,0.07,0.32
2021-11-10 11:9:39.6440,0.187,1.331,-0.111,-2.09,-2.26,1.75,-0.72,-0.06,0.55
2021-11-10 11:9:39.6530,0.092,1.42,-0.025,-0.46,-3.19,1.46,-0.72,-0.06,0.55
2021-11-10 11:9:39.6640,0.058,1.534,0.134,0.95,-3.98,1.11,-0.57,-0.06,0.58
2021-11-10 11:9:39.6730,0.005,1.6,0.225,1.41,-5.09,-0.36,-0.38,-0.02,0.56
2021-11-10 11:9:39.6840,-0.033,1.599,0.314,1.92,-5.98,-1.48,-0.18,0.07,0.51
2021-11-10 11:9:39.6930,-0.069,1.524,0.39,2.43,-6.24,-2.29,0.04,0.2,0.45
2021-11-10 11:9:39.7030,-0.13,1.405,0.433,2.76,-5.77,-3.15,0.6,0.43,0.35
2021-11-10 11:9:39.7130,-0.193,1.272,0.437,3.32,-4.73,-3.73,0.6,0.43,0.35
2021-11-10 11:9:39.7230,-0.235,1.151,0.384,3.99,-3.45,-3.99,0.88,0.56,0.34
2021-11-10 11:9:39.7330,-0.246,1.058,0.294,4.54,-2.19,-3.78,1.32,0.87,0.36
2021-11-10 11:9:39.7430,-0.246,1.01,0.206,4.78,-1.17,-3.06,1.32,0.87,0.36
2021-11-10 11:9:39.7540,-0.218,1.018,0.116,4.85,-0.52,-2.31,1.49,1.08,0.39
2021-11-10 11:9:39.7640,-0.162,1.057,0.042,4.74,-0.41,-1.54,1.53,1.31,0.39
2021-11-10 11:9:39.7730,-0.092,1.089,-0.003,4.32,-0.75,-0.83,1.46,1.52,0.36
2021-11-10 11:9:39.7830,-0.017,1.102,-0.023,3.7,-1.12,-0.37,1.33,1.64,0.29
2021-11-10 11:9:39.7930,0.062,1.087,-0.035,3.0,-1.34,-0.17,1.23,1.67,0.18
2021-11-10 11:9:39.8040,0.133,1.046,-0.055,2.25,-1.31,-0.13,1.16,1.58,0.04
2021-11-10 11:9:39.8130,0.197,0.99,-0.08,1.52,-0.99,-0.01,1.02,1.21,-0.26
2021-11-10 11:9:39.8230,0.244,0.936,-0.11,0.85,-0.47,0.13,1.02,1.21,-0.26
2021-11-10 11:9:39.8330,0.26,0.885,-0.121,0.29,0.08,0.38,0.92,1.01,-0.35
2021-11-10 11:9:39.8430,0.259,0.843,-0.114,-0.01,0.58,0.5,0.84,0.88,-0.38
2021-11-10 11:9:39.8530,0.265,0.832,-0.123,-0.06,1.06,0.41,0.79,0.78,-0.39
2021-11-10 11:9:39.8630,0.252,0.829,-0.144,-0.13,1.29,0.37,0.78,0.71,-0.37
2021-11-10 11:9:39.8720,0.235,0.829,-0.161,-0.11,1.33,0.48,0.8,0.66,-0.34
2021-11-10 11:9:39.8830,0.208,0.821,-0.171,0.03,1.33,0.63,0.81,0.65,-0.3
2021-11-10 11:9:39.8940,0.196,0.819,-0.195,0.23,1.38,0.66,0.81,0.59,-0.26
2021-11-10 11:9:39.9030,0.211,0.82,-0.213,0.43,1.43,0.81,0.77,0.47,-0.27
2021-11-10 11:9:39.9130,0.216,0.798,-0.225,0.34,1.41,0.94,0.68,0.33,-0.28
2021-11-10 11:9:39.9230,0.221,0.774,-0.228,0.19,1.52,1.06,0.59,0.22,-0.28
2021-11-10 11:9:39.9320,0.234,0.764,-0.236,0.17,1.8,1.04,0.51,0.15,-0.29
2021-11-10 11:9:39.9420,0.241,0.763,-0.245,0.02,1.93,1.07,0.43,0.16,-0.27
2021-11-10 11:9:39.9530,0.241,0.769,-0.253,-0.09,1.99,1.12,0.37,0.16,-0.27
2021-11-10 11:9:39.9620,0.236,0.787,-0.275,-0.15,1.95,1.17,0.31,0.2,-0.27
2021-11-10 11:9:39.9730,0.216,0.801,-0.292,-0.14,1.81,1.31,0.27,0.21,-0.26
2021-11-10 11:9:39.9820,0.205,0.816,-0.31,-0.03,1.65,1.5,0.23,0.23,-0.24
2021-11-10 11:9:39.9930,0.191,0.834,-0.324,0.15,1.54,1.61,0.19,0.21,-0.24
2021-11-10 11:9:40.0030,0.169,0.839,-0.317,0.19,1.34,1.82,0.15,0.16,-0.2
2021-11-10 11:9:40.0130,0.17,0.841,-0.334,0.42,1.25,1.76,0.15,0.16,-0.2
2021-11-10 11:9:40.0230,0.159,0.818,-0.333,0.45,1.23,1.85,0.16,0.15,-0.15
2021-11-10 11:9:40.0340,0.177,0.782,-0.355,0.51,1.33,1.9,0.16,0.15,-0.15
2021-11-10 11:9:40.0430,0.191,0.744,-0.379,0.46,1.69,1.96,0.14,0.14,-0.06
2021-11-10 11:9:40.0530,0.198,0.707,-0.373,0.24,2.02,2.3,0.14,0.14,-0.06
2021-11-10 11:9:40.0620,0.217,0.689,-0.384,0.19,2.42,2.25,0.09,0.16,0.02
2021-11-10 11:9:40.0730,0.233,0.673,-0.396,0.05,2.65,2.33,0.04,0.17,0.11
2021-11-10 11:9:40.0830,0.251,0.666,-0.416,-0.11,2.81,2.42,-0.04,0.12,0.21
2021-11-10 11:9:40.0930,0.281,0.678,-0.431,-0.24,2.93,2.62,-0.24,-0.08,0.32
2021-11-10 11:9:40.1030,0.295,0.704,-0.43,-0.47,2.87,2.82,-0.24,-0.08,0.32
2021-11-10 11:9:40.1120,0.316,0.758,-0.41,-0.66,2.66,2.89,-0.27,-0.18,0.34
2021-11-10 11:9:40.1220,0.347,0.829,-0.373,-0.76,2.25,2.79,-0.29,-0.3,0.3
2021-11-10 11:9:40.1320,0.347,0.899,-0.297,-1.06,1.58,2.52,-0.34,-0.47,0.22
2021-11-10 11:9:40.1420,0.315,0.997,-0.226,-1.18,0.9,1.94,-0.35,-0.67,0.11
2021-11-10 11:9:40.1520,0.266,1.124,-0.212,-1.01,0.08,1.15,-0.32,-0.85,-0.03
2021-11-10 11:9:40.1620,0.216,1.241,-0.219,-0.55,-1.08,0.8,-0.32,-0.93,-0.19
2021-11-10 11:9:40.1720,0.165,1.301,-0.264,-0.11,-2.31,0.86,-0.36,-0.78,-0.31
2021-11-10 11:9:40.1820,0.132,1.302,-0.35,0.35,-3.14,1.12,-0.37,-0.47,-0.35
2021-11-10 11:9:40.1930,0.125,1.28,-0.418,0.73,-3.32,1.92,-0.27,-0.08,-0.34
2021-11-10 11:9:40.2020,0.129,1.217,-0.499,0.88,-3.16,2.68,-0.1,0.3,-0.28
2021-11-10 11:9:40.2120,0.119,1.146,-0.557,0.81,-2.72,3.38,0.18,0.5,-0.2
2021-11-10 11:9:40.2210,0.12,1.125,-0.532,0.86,-1.95,4.14,0.5,0.53,-0.15
2021-11-10 11:9:40.2320,0.166,1.098,-0.464,0.93,-1.57,4.12,0.71,0.44,-0.12
2021-11-10 11:9:40.2420,0.231,1.051,-0.415,0.66,-1.42,3.5,0.63,0.32,-0.03
2021-11-10 11:9:40.2530,0.226,1.07,-0.411,-0.01,-0.97,2.8,0.63,0.32,-0.03
2021-11-10 11:9:40.2630,0.195,1.239,-0.379,-0.26,-0.8,2.61,0.6,0.19,-0.08
2021-11-10 11:9:40.2720,0.218,1.525,-0.303,0.07,-1.88,2.42,0.59,0.03,-0.27
2021-11-10 11:9:40.2820,0.251,1.777,-0.158,0.0,-4.37,1.78,0.34,0.0,-0.51
2021-11-10 11:9:40.2920,0.248,1.824,0.054,-0.4,-7.18,0.65,-0.04,0.21,-0.69
2021-11-10 11:9:40.3020,0.161,1.643,0.178,-0.64,-8.49,-1.25,-0.29,0.51,-0.78
2021-11-10 11:9:40.3120,0.031,1.324,0.193,-0.16,-7.5,-2.96,-0.22,0.58,-0.78
2021-11-10 11:9:40.3220,-0.095,1.036,0.221,0.97,-4.68,-3.31,0.13,0.52,-0.72
2021-11-10 11:9:40.3320,-0.187,0.828,0.156,2.19,-1.59,-3.57,0.49,0.46,-0.58
2021-11-10 11:9:40.3420,-0.196,0.677,0.004,3.24,0.73,-3.48,0.6,0.36,-0.39
2021-11-10 11:9:40.3510,-0.141,0.571,-0.074,3.64,2.4,-2.16,0.53,0.33,-0.19
2021-11-10 11:9:40.3610,-0.077,0.494,-0.066,3.27,3.58,-1.05,0.21,0.41,0.19
2021-11-10 11:9:40.3720,-0.015,0.437,-0.01,2.66,4.41,-0.89,0.21,0.41,0.19
2021-11-10 11:9:40.3820,0.061,0.429,0.041,2.08,5.05,-1.3,-0.0,0.45,0.34
2021-11-10 11:9:40.3920,0.135,0.499,0.065,1.45,5.36,-1.87,-0.26,0.42,0.38
2021-11-10 11:9:40.4010,0.172,0.616,0.065,0.69,4.96,-2.13,-0.52,0.28,0.27
2021-11-10 11:9:40.4120,0.193,0.788,0.075,0.21,3.95,-2.16,-0.77,0.06,0.05
2021-11-10 11:9:40.4210,0.204,0.987,0.101,-0.03,2.52,-2.09,-1.01,-0.31,-0.41
2021-11-10 11:9:40.4310,0.191,1.139,0.148,-0.24,0.57,-2.2,-1.01,-0.31,-0.41
2021-11-10 11:9:40.4420,0.148,1.214,0.194,-0.24,-1.1,-2.49,-0.95,-0.22,-0.45
2021-11-10 11:9:40.4520,0.066,1.198,0.208,0.01,-2.15,-2.92,-0.8,0.07,-0.37
2021-11-10 11:9:40.4620,-0.042,1.126,0.176,0.65,-2.3,-3.13,-0.38,0.73,-0.14
2021-11-10 11:9:40.4720,-0.132,1.043,0.125,1.65,-1.73,-2.93,-0.38,0.73,-0.14
2021-11-10 11:9:40.4820,-0.184,0.971,0.092,2.63,-0.92,-2.39,-0.25,0.97,-0.08
2021-11-10 11:9:40.4920,-0.192,0.923,0.081,3.3,-0.15,-1.95,-0.2,1.15,-0.04
2021-11-10 11:9:40.5020,-0.162,0.915,0.084,3.55,0.42,-1.72,-0.2,1.47,-0.04
2021-11-10 11:9:40.5120,-0.096,0.943,0.091,3.41,0.67,-1.68,-0.2,1.47,-0.04
2021-11-10 11:9:40.5210,-0.01,0.991,0.102,2.9,0.51,-1.68,-0.2,1.58,-0.04
2021-11-10 11:9:40.5310,0.058,1.024,0.1,2.08,0.09,-1.74,-0.17,1.68,-0.02
2021-11-10 11:9:40.5420,0.111,1.028,0.091,1.37,-0.32,-1.75,-0.12,1.75,0.05
2021-11-10 11:9:40.5520,0.159,1.011,0.079,0.8,-0.48,-1.62,-0.06,1.81,0.14
2021-11-10 11:9:40.5620,0.219,0.983,0.053,0.38,-0.37,-1.5,0.06,1.79,0.24
2021-11-10 11:9:40.5720,0.27,0.944,0.03,-0.14,-0.14,-1.26,0.06,1.79,0.24
2021-11-10 11:9:40.5810,0.311,0.908,-0.001,-0.65,0.21,-1.0,0.09,1.73,0.25
2021-11-10 11:9:40.5910,0.334,0.875,-0.035,-1.07,0.58,-0.7,0.05,1.51,0.16
2021-11-10 11:9:40.6010,0.354,0.843,-0.06,-1.32,0.9,-0.35,0.05,1.51,0.16
2021-11-10 11:9:40.6110,0.377,0.831,-0.08,-1.49,1.23,-0.04,0.01,1.41,0.1
2021-11-10 11:9:40.6200,0.395,0.839,-0.097,-1.7,1.43,0.2,-0.03,1.33,0.01
2021-11-10 11:9:40.6310,0.403,0.857,-0.116,-1.9,1.42,0.39,-0.07,1.24,-0.07
2021-11-10 11:9:40.6410,0.411,0.887,-0.128,-2.02,1.28,0.62,-0.1,1.14,-0.14
2021-11-10 11:9:40.6520,0.414,0.91,-0.129,-2.1,1.02,0.79,-0.12,1.04,-0.19
2021-11-10 11:9:40.6600,0.403,0.921,-0.121,-2.19,0.74,0.9,-0.11,0.97,-0.22
2021-11-10 11:9:40.6700,0.386,0.942,-0.131,-2.13,0.64,0.82,-0.07,0.89,-0.27
2021-11-10 11:9:40.6820,0.357,0.951,-0.138,-2.03,0.46,0.9,-0.03,0.82,-0.33
2021-11-10 11:9:40.6910,0.331,0.951,-0.143,-1.8,0.32,0.99,-0.0,0.75,-0.37
2021-11-10 11:9:40.7010,0.311,0.946,-0.139,-1.56,0.3,1.07,0.03,0.7,-0.41
2021-11-10 11:9:40.7110,0.288,0.946,-0.133,-1.38,0.35,1.07,0.06,0.67,-0.43
2021-11-10 11:9:40.7210,0.268,0.945,-0.139,-1.22,0.38,1.01,0.1,0.68,-0.44
2021-11-10 11:9:40.7310,0.25,0.937,-0.153,-1.05,0.38,1.01,0.12,0.71,-0.45
2021-11-10 11:9:40.7420,0.245,0.924,-0.171,-0.89,0.44,1.13,0.12,0.76,-0.44
2021-11-10 11:9:40.7500,0.252,0.906,-0.182,-0.83,0.55,1.3,0.11,0.83,-0.44
2021-11-10 11:9:40.7610,0.274,0.894,-0.183,-0.88,0.71,1.46,0.08,0.9,-0.43
2021-11-10 11:9:40.7710,0.31,0.896,-0.191,-1.09,0.89,1.49,0.01,0.96,-0.4
2021-11-10 11:9:40.7810,0.355,0.898,-0.197,-1.43,0.92,1.56,0.01,0.96,-0.4
2021-11-10 11:9:40.7900,0.413,0.892,-0.197,-1.87,0.88,1.65,-0.09,0.92,-0.36
2021-11-10 11:9:40.8000,0.479,0.88,-0.199,-2.41,0.92,1.71,-0.19,0.83,-0.3
2021-11-10 11:9:40.8120,0.532,0.873,-0.223,-3.08,1.03,1.72,-0.28,0.67,-0.22
2021-11-10 11:9:40.8210,0.57,0.879,-0.252,-3.68,1.13,1.91,-0.36,0.46,-0.15
2021-11-10 11:9:40.8300,0.578,0.904,-0.272,-4.11,1.13,2.25,-0.43,0.27,-0.09
2021-11-10 11:9:40.8420,0.545,0.952,-0.277,-4.34,0.96,2.55,-0.52,0.1,-0.03
2021-11-10 11:9:40.8510,0.494,1.026,-0.25,-4.14,0.58,2.7,-0.58,0.01,0.01
2021-11-10 11:9:40.8600,0.438,1.102,-0.216,-3.69,-0.07,2.64,-0.63,-0.05,0.02
2021-11-10 11:9:40.8710,0.373,1.167,-0.177,-3.16,-0.84,2.32,-0.69,-0.12,0.03
2021-11-10 11:9:40.8800,0.303,1.233,-0.107,-2.54,-1.51,2.11,-0.66,-0.25,0.14
2021-11-10 11:9:40.8910,0.237,1.31,-0.051,-1.86,-2.13,1.55,-0.66,-0.25,0.14
2021-11-10 11:9:40.9000,0.178,1.367,0.019,-1.16,-2.87,0.98,-0.62,-0.34,0.21
2021-11-10 11:9:40.9100,0.123,1.391,0.106,-0.53,-3.55,0.45,-0.52,-0.4,0.28
2021-11-10 11:9:40.9190,0.07,1.404,0.197,0.06,-3.89,-0.34,-0.35,-0.45,0.35
2021-11-10 11:9:40.9300,0.016,1.384,0.285,0.62,-4.06,-1.19,0.03,-0.45,0.5
2021-11-10 11:9:40.9400,-0.025,1.312,0.335,1.2,-4.04,-2.11,0.03,-0.45,0.5
2021-11-10 11:9:40.9510,-0.056,1.221,0.355,1.72,-3.52,-2.78,0.23,-0.45,0.54
2021-11-10 11:9:40.9610,-0.099,1.142,0.371,2.09,-2.66,-3.08,0.42,-0.42,0.56
2021-11-10 11:9:40.9700,-0.135,1.071,0.363,2.52,-1.83,-3.32,0.59,-0.34,0.57
2021-11-10 11:9:40.9800,-0.158,1.01,0.325,2.99,-1.12,-3.42,0.76,-0.2,0.57
2021-11-10 11:9:40.9910,-0.173,0.975,0.262,3.3,-0.48,-3.24,0.91,-0.01,0.57
2021-11-10 11:9:41.0010,-0.179,0.974,0.191,3.55,-0.03,-2.79,1.11,0.49,0.57
2021-11-10 11:9:41.0100,-0.178,1.004,0.112,3.68,0.09,-2.21,1.11,0.49,0.57
2021-11-10 11:9:41.0200,-0.162,1.051,0.029,3.76,-0.1,-1.56,1.17,0.77,0.57
2021-11-10 11:9:41.0300,-0.135,1.089,-0.032,3.72,-0.55,-0.84,1.22,1.22,0.53
2021-11-10 11:9:41.0400,-0.091,1.111,-0.077,3.55,-0.99,-0.24,1.22,1.22,0.53
2021-11-10 11:9:41.0510,-0.026,1.11,-0.109,3.25,-1.28,0.16,1.16,1.31,0.5
2021-11-10 11:9:41.0600,0.071,1.081,-0.127,2.74,-1.39,0.46,1.05,1.28,0.45
2021-11-10 11:9:41.0700,0.185,1.022,-0.159,1.96,-1.22,0.59,0.91,1.11,0.35
2021-11-10 11:9:41.0800,0.283,0.96,-0.182,0.9,-0.75,0.79,0.79,0.88,0.24
2021-11-10 11:9:41.0900,0.351,0.9,-0.187,-0.13,-0.14,1.03,0.7,0.64,0.16
2021-11-10 11:9:41.1000,0.399,0.86,-0.192,-0.9,0.45,1.09,0.62,0.39,0.1
2021-11-10 11:9:41.1100,0.456,0.873,-0.217,-1.38,0.96,1.05,0.57,0.14,0.05
2021-11-10 11:9:41.1200,0.481,0.897,-0.241,-1.94,1.01,1.18,0.51,-0.15,-0.02
2021-11-10 11:9:41.1300,0.47,0.914,-0.247,-2.34,0.76,1.4,0.47,-0.4,-0.06
2021-11-10 11:9:41.1390,0.429,0.912,-0.245,-2.37,0.56,1.47,0.43,-0.62,-0.09
2021-11-10 11:9:41.1490,0.372,0.89,-0.24,-2.07,0.49,1.41,0.4,-0.8,-0.09
2021-11-10 11:9:41.1600,0.307,0.854,-0.233,-1.58,0.64,1.32,0.34,-0.94,-0.1
2021-11-10 11:9:41.1700,0.247,0.82,-0.224,-0.98,0.96,1.2,0.27,-1.04,-0.09
2021-11-10 11:9:41.1800,0.195,0.802,-0.206,-0.37,1.31,1.08,0.22,-1.06,-0.09
2021-11-10 11:9:41.1900,0.141,0.79,-0.202,0.12,1.55,0.9,0.19,-1.05,-0.08
2021-11-10 11:9:41.1990,0.113,0.799,-0.199,0.66,1.69,0.73,0.16,-1.01,-0.07
2021-11-10 11:9:41.2100,0.1,0.805,-0.19,1.01,1.67,0.72,0.14,-0.95,-0.06
2021-11-10 11:9:41.2190,0.097,0.813,-0.197,1.18,1.59,0.57,0.11,-0.89,-0.05
2021-11-10 11:9:41.2300,0.095,0.814,-0.217,1.21,1.51,0.55,0.05,-0.85,-0.03
2021-11-10 11:9:41.2390,0.088,0.804,-0.227,1.22,1.48,0.7,-0.04,-0.77,-0.03
2021-11-10 11:9:41.2490,0.093,0.779,-0.228,1.25,1.52,0.86,-0.15,-0.69,-0.0
2021-11-10 11:9:41.2590,0.115,0.76,-0.231,1.29,1.73,0.89,-0.22,-0.64,0.02
2021-11-10 11:9:41.2700,0.134,0.743,-0.242,1.09,1.96,0.93,-0.25,-0.6,0.03
2021-11-10 11:9:41.2800,0.164,0.737,-0.268,0.91,2.12,0.97,-0.27,-0.58,0.01
2021-11-10 11:9:41.2900,0.169,0.737,-0.278,0.61,2.26,1.24,-0.27,-0.54,-0.0
2021-11-10 11:9:41.3000,0.178,0.74,-0.306,0.47,2.25,1.38,-0.26,-0.51,0.02
2021-11-10 11:9:41.3100,0.2,0.752,-0.323,0.43,2.26,1.61,-0.26,-0.5,0.06
2021-11-10 11:9:41.3200,0.218,0.75,-0.313,0.24,2.14,1.87,-0.26,-0.5,0.12
2021-11-10 11:9:41.3280,0.238,0.746,-0.291,0.06,2.11,1.87,-0.26,-0.52,0.18
2021-11-10 11:9:41.3400,0.259,0.744,-0.269,-0.3,2.18,1.49,-0.34,-0.67,0.27
2021-11-10 11:9:41.3490,0.282,0.753,-0.254,-0.3,2.18,1.49,-0.34,-0.67,0.27
2021-11-10 11:9:41.3590,0.307,0.777,-0.235,-0.48,2.14,1.33,-0.43,-0.77,0.28
2021-11-10 11:9:41.3690,0.331,0.83,-0.214,-0.73,1.98,1.23,-0.51,-0.82,0.29
2021-11-10 11:9:41.3790,0.359,0.904,-0.22,-0.93,1.57,1.0,-0.66,-0.99,0.2
2021-11-10 11:9:41.3900,0.359,0.981,-0.193,-1.2,0.89,1.02,-0.66,-0.99,0.2
2021-11-10 11:9:41.3990,0.304,1.076,-0.124,-1.33,0.15,1.0,-0.66,-1.09,0.13
2021-11-10 11:9:41.4090,0.199,1.199,-0.063,-1.04,-0.67,0.45,-0.52,-1.13,0.05
2021-11-10 11:9:41.4190,0.115,1.298,-0.059,-0.13,-1.81,-0.22,-0.36,-1.09,-0.05
2021-11-10 11:9:41.4290,0.041,1.336,-0.108,0.79,-2.92,-0.49,-0.27,-0.93,-0.17
2021-11-10 11:9:41.4390,-0.02,1.31,-0.193,1.49,-3.55,-0.18,-0.21,-0.64,-0.23
2021-11-10 11:9:41.4490,-0.031,1.258,-0.286,2.16,-3.48,0.55,-0.12,-0.28,-0.24
2021-11-10 11:9:41.4590,0.0,1.189,-0.376,2.45,-3.03,1.47,0.02,0.12,-0.21
2021-11-10 11:9:41.4690,0.028,1.123,-0.446,2.24,-2.41,2.35,0.22,0.42,-0.15
2021-11-10 11:9:41.4780,0.064,1.09,-0.453,1.93,-1.71,3.15,0.51,0.6,-0.11
2021-11-10 11:9:41.4890,0.111,1.065,-0.423,1.63,-1.27,3.38,0.76,0.68,-0.07
2021-11-10 11:9:41.4990,0.173,1.045,-0.372,1.2,-1.04,3.16,0.89,0.71,-0.03
2021-11-10 11:9:41.5090,0.244,1.057,-0.388,0.67,-0.82,2.58,0.87,0.7,0.04
2021-11-10 11:9:41.5200,0.305,1.13,-0.41,0.0,-0.78,2.38,0.86,0.55,0.06
2021-11-10 11:9:41.5290,0.338,1.285,-0.319,-0.65,-1.26,2.68,0.9,0.34,-0.02
2021-11-10 11:9:41.5390,0.322,1.514,-0.16,-1.12,-2.47,2.16,0.76,0.17,-0.18
2021-11-10 11:9:41.5480,0.302,1.701,-0.014,-1.14,-4.51,0.69,0.45,0.19,-0.35
2021-11-10 11:9:41.5590,0.289,1.695,0.07,-0.94,-6.69,-0.89,0.13,0.31,-0.45
2021-11-10 11:9:41.5690,0.235,1.499,0.143,-0.86,-7.43,-1.93,-0.02,0.4,-0.48
2021-11-10 11:9:41.5790,0.123,1.214,0.202,-0.58,-6.11,-2.61,0.1,0.44,-0.43
2021-11-10 11:9:41.5890,-0.003,0.975,0.154,0.31,-3.48,-3.34,0.34,0.34,-0.31
2021-11-10 11:9:41.5980,-0.045,0.812,0.036,1.56,-0.87,-3.39,0.51,0.11,-0.18
2021-11-10 11:9:41.6090,-0.007,0.7,-0.03,2.36,0.99,-2.35,0.4,-0.14,0.12
2021-11-10 11:9:41.6190,0.059,0.609,-0.042,2.21,2.22,-1.52,0.4,-0.14,0.12
2021-11-10 11:9:41.6290,0.11,0.54,-0.017,1.63,3.17,-1.25,0.23,-0.16,0.26
2021-11-10 11:9:41.6390,0.145,0.502,0.028,1.08,3.92,-1.39,-0.17,-0.17,0.41
2021-11-10 11:9:41.6490,0.163,0.517,0.058,0.73,4.43,-1.79,-0.17,-0.17,0.41
2021-11-10 11:9:41.6580,0.17,0.598,0.057,0.52,4.49,-2.15,-0.61,-0.37,0.2
2021-11-10 11:9:41.6690,0.162,0.736,0.054,0.44,3.95,-2.21,-0.79,-0.48,-0.01
2021-11-10 11:9:41.6790,0.146,0.902,0.08,0.45,2.8,-2.06,-0.79,-0.5,-0.18
2021-11-10 11:9:41.6900,0.12,1.033,0.126,0.57,1.21,-2.15,-0.87,-0.5,-0.18
2021-11-10 11:9:41.6990,0.088,1.116,0.18,0.77,-0.22,-2.45,-0.84,-0.35,-0.25
2021-11-10 11:9:41.7090,0.03,1.142,0.203,1.03,-1.21,-2.93,-0.7,-0.05,-0.26
2021-11-10 11:9:41.7190,-0.052,1.11,0.186,1.45,-1.68,-3.24,-0.52,0.29,-0.22
2021-11-10 11:9:41.7290,-0.123,1.057,0.148,2.19,-1.54,-3.16,-0.19,0.93,-0.13
2021-11-10 11:9:41.7390,-0.171,1.002,0.11,2.95,-1.04,-2.8,-0.19,0.93,-0.13
2021-11-10 11:9:41.7490,-0.192,0.951,0.091,3.52,-0.5,-2.36,-0.11,1.21,-0.08
2021-11-10 11:9:41.7600,-0.171,0.914,0.093,3.86,0.02,-2.06,-0.09,1.46,-0.0
2021-11-10 11:9:41.7690,-0.102,0.914,0.096,3.84,0.46,-1.97,-0.07,1.68,0.07
2021-11-10 11:9:41.7790,-0.011,0.947,0.1,3.35,0.61,-1.98,-0.05,1.87,0.12
2021-11-10 11:9:41.7890,0.071,0.98,0.105,2.54,0.38,-1.95,-0.03,2.01,0.14
2021-11-10 11:9:41.7990,0.145,0.992,0.099,1.72,0.01,-1.97,-0.02,2.08,0.15
2021-11-10 11:9:41.8080,0.231,0.992,0.085,1.0,-0.19,-1.91,0.05,2.05,0.12
2021-11-10 11:9:41.8190,0.316,0.982,0.059,0.27,-0.22,-1.76,0.1,1.98,0.09
2021-11-10 11:9:41.8290,0.366,0.968,0.037,-0.61,-0.16,-1.5,0.1,1.98,0.09
2021-11-10 11:9:41.8390,0.412,0.958,0.008,-1.18,-0.04,-1.24,0.1,1.75,-0.02
2021-11-10 11:9:41.8490,0.426,0.948,-0.017,-1.64,0.07,-0.95,0.1,1.75,-0.02
2021-11-10 11:9:41.8590,0.427,0.942,-0.041,-1.94,0.25,-0.39,0.08,1.53,-0.12
2021-11-10 11:9:41.8690,0.419,0.934,-0.066,-1.94,0.25,-0.39,0.08,1.53,-0.12
2021-11-10 11:9:41.8790,0.41,0.926,-0.086,-1.88,0.32,-0.12,0.07,1.45,-0.17
2021-11-10 11:9:41.8880,0.393,0.919,-0.096,-1.81,0.4,0.12,0.04,1.4,-0.2
2021-11-10 11:9:41.8990,0.376,0.915,-0.106,-1.69,0.49,0.29,0.02,1.35,-0.21
2021-11-10 11:9:41.9090,0.372,0.914,-0.119,-1.49,0.54,0.4,0.01,1.3,-0.23
2021-11-10 11:9:41.9180,0.367,0.92,-0.129,-1.45,0.57,0.56,0.02,1.25,-0.25
2021-11-10 11:9:41.9290,0.361,0.926,-0.141,-1.41,0.55,0.68,0.03,1.2,-0.3
2021-11-10 11:9:41.9380,0.349,0.926,-0.15,-1.4,0.48,0.83,0.03,1.15,-0.36
2021-11-10 11:9:41.9480,0.336,0.921,-0.158,-1.32,0.47,0.93,0.03,1.09,-0.4
2021-11-10 11:9:41.9580,0.325,0.905,-0.163,-1.24,0.51,1.05,0.02,1.05,-0.44
2021-11-10 11:9:41.9680,0.307,0.881,-0.166,-1.16,0.62,1.12,0.02,1.03,-0.46
2021-11-10 11:9:41.9780,0.286,0.857,-0.171,-1.06,0.85,1.19,0.01,1.03,-0.46
2021-11-10 11:9:41.9870,0.265,0.838,-0.18,-0.89,1.1,1.23,0.01,1.05,-0.43
2021-11-10 11:9:41.9970,0.259,0.824,-0.184,-0.72,1.32,1.33,0.02,1.07,-0.41
2021-11-10 11:9:42.0080,0.27,0.821,-0.181,-0.61,1.48,1.42,0.03,1.07,-0.38
2021-11-10 11:9:42.0180,0.293,0.833,-0.186,-0.71,1.57,1.42,0.03,1.06,-0.34
2021-11-10 11:9:42.0280,0.326,0.853,-0.197,-0.9,1.51,1.45,0.01,1.04,-0.29
2021-11-10 11:9:42.0380,0.373,0.874,-0.204,-1.21,1.32,1.57,-0.03,0.99,-0.22
2021-11-10 11:9:42.0470,0.422,0.889,-0.207,-1.63,1.13,1.68,-0.09,0.91,-0.15
2021-11-10 11:9:42.0580,0.471,0.901,-0.215,-2.13,0.96,1.75,-0.16,0.78,-0.08
2021-11-10 11:9:42.0670,0.507,0.907,-0.238,-2.62,0.83,1.82,-0.22,0.61,-0.04
2021-11-10 11:9:42.0780,0.533,0.902,-0.26,-3.03,0.74,2.03,-0.3,0.43,-0.0
2021-11-10 11:9:42.0880,0.552,0.902,-0.275,-3.31,0.75,2.31,-0.38,0.27,0.03
2021-11-10 11:9:42.0970,0.554,0.916,-0.286,-3.52,0.8,2.53,-0.45,0.17,0.03
2021-11-10 11:9:42.1080,0.532,0.944,-0.292,-3.62,0.71,2.71,-0.56,0.12,0.02
2021-11-10 11:9:42.1170,0.508,0.999,-0.287,-3.47,0.49,2.83,-0.64,0.06,-0.01
2021-11-10 11:9:42.1280,0.481,1.074,-0.26,-3.23,0.07,2.92,-0.68,0.02,-0.07
2021-11-10 11:9:42.1370,0.426,1.149,-0.216,-3.0,-0.62,2.79,-0.71,-0.02,-0.1
2021-11-10 11:9:42.1490,0.351,1.224,-0.142,-2.6,-1.37,2.51,-0.71,-0.02,-0.1
2021-11-10 11:9:42.1580,0.274,1.297,-0.07,-1.91,-2.1,1.94,-0.66,-0.01,-0.05
2021-11-10 11:9:42.1670,0.217,1.359,-0.002,-1.14,-2.83,1.27,-0.61,0.02,-0.0
2021-11-10 11:9:42.1770,0.177,1.399,0.078,-0.5,-3.5,0.64,-0.52,0.03,0.02
2021-11-10 11:9:42.1880,0.135,1.395,0.175,-0.06,-3.99,-0.03,-0.37,0.07,0.05
2021-11-10 11:9:42.1980,0.08,1.347,0.248,0.35,-4.14,-0.92,-0.2,0.08,0.13
2021-11-10 11:9:42.2070,0.021,1.263,0.299,0.85,-3.82,-1.75,-0.03,0.06,0.23
2021-11-10 11:9:42.2170,-0.019,1.158,0.32,1.48,-3.13,-2.32,0.15,0.01,0.34
2021-11-10 11:9:42.2270,-0.056,1.071,0.323,1.97,-2.14,-2.68,0.33,-0.05,0.43
2021-11-10 11:9:42.2370,-0.076,1.01,0.335,2.38,-1.2,-2.78,0.5,-0.08,0.53
2021-11-10 11:9:42.2460,-0.064,0.961,0.341,2.73,-0.52,-2.93,0.65,-0.08,0.6
2021-11-10 11:9:42.2580,-0.043,0.932,0.34,2.78,-0.02,-3.09,0.81,-0.04,0.64
2021-11-10 11:9:42.2670,-0.038,0.92,0.308,2.64,0.33,-3.2,0.96,0.1,0.65
2021-11-10 11:9:42.2770,-0.041,0.941,0.231,2.58,0.51,-3.13,1.07,0.33,0.66
2021-11-10 11:9:42.2880,-0.032,0.993,0.138,2.68,0.42,-2.62,1.2,0.84,0.67
2021-11-10 11:9:42.2970,-0.014,1.061,0.058,2.7,0.0,-1.82,1.23,1.04,0.67
2021-11-10 11:9:42.3080,0.018,1.113,0.006,2.62,-0.65,-1.05,1.23,1.04,0.67
2021-11-10 11:9:42.3170,0.078,1.148,-0.032,2.43,-1.28,-0.54,1.24,1.12,0.63
2021-11-10 11:9:42.3270,0.172,1.158,-0.066,2.02,-1.69,-0.21,1.23,1.08,0.54
2021-11-10 11:9:42.3380,0.272,1.118,-0.101,1.26,-1.93,0.04,1.19,0.93,0.4
2021-11-10 11:9:42.3470,0.357,1.044,-0.139,0.3,-1.74,0.28,1.09,0.75,0.28
2021-11-10 11:9:42.3570,0.432,0.967,-0.174,-0.56,-1.11,0.57,0.96,0.51,0.2
2021-11-10 11:9:42.3670,0.483,0.918,-0.187,-1.32,-0.35,0.86,0.85,0.25,0.16
2021-11-10 11:9:42.3770,0.519,0.906,-0.195,-1.91,0.27,1.03,0.76,0.02,0.1
2021-11-10 11:9:42.3870,0.532,0.921,-0.211,-2.3,0.49,1.0,0.65,-0.5,-0.01
2021-11-10 11:9:42.3970,0.516,0.942,-0.22,-2.54,0.43,1.06,0.65,-0.5,-0.01
2021-11-10 11:9:42.4080,0.481,0.948,-0.206,-2.47,0.21,1.14,0.61,-0.72,-0.07
2021-11-10 11:9:42.4170,0.429,0.931,-0.2,-2.23,0.07,0.98,0.58,-0.88,-0.12
2021-11-10 11:9:42.4270,0.368,0.895,-0.196,-1.79,0.15,0.8,0.54,-1.0,-0.16
2021-11-10 11:9:42.4370,0.309,0.862,-0.19,-1.25,0.45,0.7,0.51,-1.06,-0.17
2021-11-10 11:9:42.4470,0.259,0.834,-0.184,-0.67,0.8,0.56,0.5,-1.07,-0.17
2021-11-10 11:9:42.4560,0.227,0.809,-0.201,-0.17,1.08,0.43,0.47,-1.03,-0.16
2021-11-10 11:9:42.4670,0.212,0.794,-0.242,0.19,1.35,0.39,0.42,-1.02,-0.14
2021-11-10 11:9:42.4760,0.189,0.773,-0.226,0.35,1.53,0.75,0.36,-0.94,-0.1
2021-11-10 11:9:42.4870,0.204,0.748,-0.247,0.54,1.67,0.75,0.34,-0.85,-0.02
2021-11-10 11:9:42.4960,0.248,0.754,-0.282,0.59,1.96,0.64,0.11,-0.9,-0.0
2021-11-10 11:9:42.5070,0.267,0.733,-0.278,0.15,1.97,1.03,0.11,-0.9,-0.0
2021-11-10 11:9:42.5170,0.291,0.697,-0.265,-0.14,2.05,1.09,-0.02,-0.94,-0.02
2021-11-10 11:9:42.5270,0.324,0.681,-0.266,-0.31,2.39,0.93,-0.14,-0.99,-0.05
2021-11-10 11:9:42.5370,0.336,0.661,-0.252,-0.7,2.64,0.91,-0.24,-1.05,-0.1
2021-11-10 11:9:42.5470,0.345,0.648,-0.234,-0.9,2.79,0.86,-0.29,-1.06,-0.15
2021-11-10 11:9:42.5560,0.339,0.649,-0.256,-1.03,2.99,0.62,-0.34,-1.05,-0.2
2021-11-10 11:9:42.5670,0.319,0.654,-0.278,-1.09,3.03,0.72,-0.41,-1.05,-0.22
2021-11-10 11:9:42.5760,0.303,0.668,-0.286,-0.95,3.0,1.01,-0.48,-1.04,-0.2
2021-11-10 11:9:42.5860,0.29,0.693,-0.289,-0.81,2.93,1.14,-0.54,-1.06,-0.17
2021-11-10 11:9:42.5970,0.277,0.716,-0.293,-0.7,2.72,1.22,-0.58,-1.18,-0.06
2021-11-10 11:9:42.6070,0.28,0.744,-0.301,-0.59,2.49,1.26,-0.58,-1.18,-0.06
2021-11-10 11:9:42.6170,0.283,0.783,-0.262,-0.58,2.26,1.39,-0.54,-1.23,-0.0
2021-11-10 11:9:42.6260,0.292,0.841,-0.224,-0.64,1.92,1.22,-0.43,-1.28,0.1
2021-11-10 11:9:42.6370,0.3,0.909,-0.191,-0.71,1.44,0.79,-0.43,-1.28,0.1
2021-11-10 11:9:42.6470,0.302,0.981,-0.151,-0.81,0.79,0.51,-0.42,-1.3,0.13
2021-11-10 11:9:42.6560,0.287,1.055,-0.135,-0.87,0.09,0.11,-0.45,-1.32,0.14
2021-11-10 11:9:42.6660,0.24,1.158,-0.118,-0.81,-0.59,-0.11,-0.46,-1.35,0.07
2021-11-10 11:9:42.6760,0.176,1.269,-0.115,-0.49,-1.48,-0.24,-0.37,-1.34,-0.04
2021-11-10 11:9:42.6870,0.128,1.347,-0.144,0.09,-2.59,-0.37,-0.23,-1.24,-0.15
2021-11-10 11:9:42.6960,0.1,1.365,-0.195,0.61,-3.5,-0.2,-0.13,-1.02,-0.25
2021-11-10 11:9:42.7060,0.072,1.296,-0.265,0.89,-3.93,0.22,-0.01,-0.75,-0.32
2021-11-10 11:9:42.7150,0.065,1.174,-0.357,1.13,-3.59,0.81,0.17,-0.44,-0.27
2021-11-10 11:9:42.7260,0.096,1.089,-0.42,1.3,-2.46,1.62,0.42,-0.17,-0.16
2021-11-10 11:9:42.7360,0.145,1.046,-0.448,1.11,-1.45,2.35,0.66,0.01,-0.05
2021-11-10 11:9:42.7460,0.217,1.048,-0.447,0.69,-0.89,2.65,0.85,0.04,0.04
2021-11-10 11:9:42.7560,0.303,1.059,-0.426,0.08,-0.78,2.68,0.86,-0.04,0.13
2021-11-10 11:9:42.7660,0.395,1.092,-0.423,-0.71,-0.92,2.43,0.73,-0.45,0.19
2021-11-10 11:9:42.7760,0.487,1.213,-0.372,-1.59,-1.09,2.24,0.73,-0.45,0.19
2021-11-10 11:9:42.7870,0.551,1.375,-0.227,-2.49,-1.95,1.99,0.67,-0.61,0.05
2021-11-10 11:9:42.7960,0.535,1.47,-0.091,-3.32,-3.52,0.78,0.33,-0.59,-0.09
2021-11-10 11:9:42.8050,0.488,1.419,-0.038,-3.48,-4.82,-0.74,-0.08,-0.47,-0.18
2021-11-10 11:9:42.8170,0.408,1.246,-0.007,-3.09,-4.88,-1.56,-0.33,-0.36,-0.22
2021-11-10 11:9:42.8250,0.258,1.052,0.015,-2.53,-3.52,-1.8,-0.21,-0.48,-0.07
2021-11-10 11:9:42.8360,0.124,0.914,-0.037,-1.28,-1.59,-2.12,-0.07,-0.72,0.01
2021-11-10 11:9:42.8460,0.053,0.851,-0.132,0.19,0.07,-1.91,-0.07,-0.72,0.01
2021-11-10 11:9:42.8570,0.048,0.795,-0.177,1.12,0.88,-1.06,-0.1,-1.13,0.17
2021-11-10 11:9:42.8660,0.095,0.732,-0.144,1.39,1.41,-0.35,-0.1,-1.13,0.17
2021-11-10 11:9:42.8760,0.167,0.674,-0.083,1.09,2.0,-0.42,-0.25,-1.18,0.27
2021-11-10 11:9:42.8870,0.235,0.63,-0.031,0.44,2.62,-0.98,-0.48,-1.26,0.33
2021-11-10 11:9:42.8950,0.298,0.611,0.026,-0.24,3.11,-1.48,-0.95,-1.56,0.25
2021-11-10 11:9:42.9060,0.344,0.631,0.074,-1.43,3.39,-2.41,-1.13,-1.73,0.13
2021-11-10 11:9:42.9150,0.367,0.705,0.11,-1.43,3.39,-2.41,-1.26,-1.88,-0.03
2021-11-10 11:9:42.9260,0.361,0.827,0.133,-1.77,2.91,-2.72,-1.26,-1.88,-0.03
2021-11-10 11:9:42.9360,0.328,0.958,0.154,-1.86,1.87,-2.91,-1.34,-1.96,-0.14
2021-11-10 11:9:42.9440,0.274,1.059,0.175,-1.69,0.6,-3.02,-1.33,-1.95,-0.17
2021-11-10 11:9:42.9550,0.209,1.111,0.19,-1.25,-0.51,-3.13,-1.26,-1.82,-0.16
2021-11-10 11:9:42.9670,0.129,1.1,0.181,-0.71,-1.21,-3.23,-1.13,-1.64,-0.14
2021-11-10 11:9:42.9760,0.048,1.042,0.149,0.01,-1.31,-3.17,-0.99,-1.44,-0.1
2021-11-10 11:9:42.9850,-0.02,0.966,0.108,0.79,-0.87,-2.86,-0.86,-1.23,-0.06
2021-11-10 11:9:42.9960,-0.073,0.897,0.07,1.49,-0.14,-2.41,-0.78,-1.01,0.07
2021-11-10 11:9:43.0060,-0.101,0.844,0.043,2.06,0.58,-1.96,-0.72,-0.79,0.07
2021-11-10 11:9:43.0160,-0.088,0.807,0.033,2.46,1.16,-1.59,-0.68,-0.62,0.15
2021-11-10 11:9:43.0250,-0.037,0.792,0.033,2.51,1.6,-1.38,-0.65,-0.47,0.22
2021-11-10 11:9:43.0350,0.026,0.801,0.04,2.14,1.84,-1.29,-0.62,-0.33,0.26
2021-11-10 11:9:43.0460,0.093,0.835,0.041,1.57,1.82,-1.29,-0.6,-0.22,0.27
2021-11-10 11:9:43.0550,0.161,0.894,0.033,0.95,1.59,-1.29,-0.61,-0.17,0.24
2021-11-10 11:9:43.0650,0.223,0.959,0.034,0.31,1.09,-1.16,-0.63,-0.17,0.17
2021-11-10 11:9:43.0750,0.267,1.006,0.046,-0.33,0.46,-1.07,-0.64,-0.18,0.09
2021-11-10 11:9:43.0860,0.293,1.022,0.058,-0.84,-0.09,-1.09,-0.62,-0.17,0.01
2021-11-10 11:9:43.0940,0.3,1.013,0.055,-1.15,-0.36,-1.17,-0.53,-0.07,-0.1
2021-11-10 11:9:43.1060,0.289,0.994,0.046,-1.27,-0.17,-1.03,-0.48,-0.01,-0.13
2021-11-10 11:9:43.1160,0.269,0.971,0.03,-1.27,-0.17,-1.03,-0.48,-0.01,-0.13
2021-11-10 11:9:43.1260,0.244,0.943,0.011,-1.11,0.05,-0.86,-0.43,0.06,-0.17
2021-11-10 11:9:43.1360,0.218,0.911,-0.003,-0.9,0.3,-0.62,-0.43,0.14,-0.19
2021-11-10 11:9:43.1450,0.206,0.888,-0.009,-0.65,0.61,-0.43,-0.43,0.32,-0.21
2021-11-10 11:9:43.1560,0.203,0.885,-0.014,-0.49,0.9,-0.29,-0.43,0.32,-0.21
2021-11-10 11:9:43.1650,0.214,0.897,-0.018,-0.45,1.01,-0.2,-0.42,0.41,-0.2
2021-11-10 11:9:43.1750,0.242,0.919,-0.025,-0.52,0.94,-0.11,-0.39,0.48,-0.17
2021-11-10 11:9:43.1860,0.286,0.94,-0.05,-0.74,0.76,-0.02,-0.34,0.52,-0.17
2021-11-10 11:9:43.1950,0.329,0.955,-0.08,-1.13,0.54,0.19,-0.31,0.49,-0.19
2021-11-10 11:9:43.2050,0.358,0.961,-0.093,-1.96,0.28,0.75,-0.28,0.44,-0.24
2021-11-10 11:9:43.2140,0.372,0.957,-0.105,-1.96,0.28,0.75,-0.26,0.41,-0.3
2021-11-10 11:9:43.2250,0.369,0.949,-0.115,-2.2,0.29,0.89,-0.25,0.4,-0.37
2021-11-10 11:9:43.2350,0.345,0.942,-0.113,-2.27,0.36,1.04,-0.24,0.4,-0.43
2021-11-10 11:9:43.2460,0.314,0.943,-0.099,-2.15,0.45,1.1,-0.21,0.41,-0.49
2021-11-10 11:9:43.2540,0.278,0.949,-0.082,-1.91,0.48,1.03,-0.19,0.43,-0.53
2021-11-10 11:9:43.2650,0.247,0.947,-0.07,-1.63,0.44,0.88,-0.2,0.45,-0.54
2021-11-10 11:9:43.2750,0.25,0.937,-0.052,-1.32,0.42,0.77,-0.24,0.5,-0.53
2021-11-10 11:9:43.2850,0.272,0.923,-0.019,-1.26,0.5,0.66,-0.3,0.56,-0.48
2021-11-10 11:9:43.2950,0.323,0.92,0.004,-1.47,0.64,0.44,-0.34,0.59,-0.42
2021-11-10 11:9:43.3060,0.401,0.931,-0.005,-1.88,0.73,0.17,-0.36,0.53,-0.34
2021-11-10 11:9:43.3150,0.49,0.941,-0.038,-2.59,0.66,0.19,-0.36,0.28,-0.18
2021-11-10 11:9:43.3240,0.553,0.95,-0.092,-3.48,0.54,0.46,-0.36,0.28,-0.18
2021-11-10 11:9:43.3350,0.574,0.971,-0.141,-4.23,0.47,0.96,-0.35,0.22,-0.09
2021-11-10 11:9:43.3450,0.544,1.019,-0.173,-4.62,0.32,1.54,-0.36,0.2,0.02
2021-11-10 11:9:43.3540,0.486,1.102,-0.174,-4.48,-0.03,1.95,-0.35,0.2,0.12
2021-11-10 11:9:43.3640,0.419,1.18,-0.14,-3.98,-0.74,2.13,-0.33,0.16,0.2
2021-11-10 11:9:43.3750,0.352,1.234,-0.078,-3.3,-1.58,1.95,-0.28,0.1,0.28
2021-11-10 11:9:43.3840,0.292,1.281,-0.016,-2.63,-2.2,1.45,-0.24,0.0,0.37
2021-11-10 11:9:43.3950,0.247,1.324,0.023,-1.93,-2.66,0.82,-0.21,-0.11,0.47
2021-11-10 11:9:43.4040,0.207,1.343,0.046,-1.4,-3.13,0.36,-0.13,-0.22,0.57
2021-11-10 11:9:43.4150,0.163,1.354,0.092,-0.93,-3.41,0.11,0.0,-0.34,0.67
2021-11-10 11:9:43.4240,0.114,1.365,0.18,-0.45,-3.52,-0.23,0.33,-0.59,0.84
2021-11-10 11:9:43.4350,0.05,1.334,0.261,0.09,-3.67,-0.99,0.33,-0.59,0.84
2021-11-10 11:9:43.4440,-0.0,1.24,0.309,0.76,-3.6,-1.93,0.51,-0.65,0.88
2021-11-10 11:9:43.4540,-0.038,1.138,0.326,1.43,-2.88,-2.58,0.66,-0.63,0.88
2021-11-10 11:9:43.4640,-0.065,1.064,0.313,1.89,-1.86,-2.94,0.75,-0.55,0.88
2021-11-10 11:9:43.4750,-0.07,1.005,0.275,2.31,-1.04,-3.02,0.79,-0.44,0.86
2021-11-10 11:9:43.4840,-0.067,0.965,0.226,2.51,-0.43,-2.79,0.81,-0.28,0.82
2021-11-10 11:9:43.4950,-0.055,0.963,0.155,2.58,0.04,-2.44,0.8,-0.1,0.79
2021-11-10 11:9:43.5040,-0.043,0.995,0.09,2.57,0.2,-1.89,0.87,0.22,0.72
2021-11-10 11:9:43.5150,-0.038,1.049,0.048,2.52,-0.03,-1.27,0.87,0.22,0.72
2021-11-10 11:9:43.5240,-0.033,1.102,0.001,2.51,-0.5,-0.86,0.87,0.44,0.6
2021-11-10 11:9:43.5340,-0.017,1.123,-0.061,2.53,-1.09,-0.53,0.87,0.44,0.6
2021-11-10 11:9:43.5430,0.016,1.127,-0.104,2.48,-1.44,-0.03,0.83,0.48,0.51
2021-11-10 11:9:43.5540,0.064,1.115,-0.118,2.26,-1.53,0.45,0.78,0.5,0.41
2021-11-10 11:9:43.5650,0.138,1.081,-0.127,1.88,-1.5,0.61,0.72,0.43,0.29
2021-11-10 11:9:43.5750,0.22,1.024,-0.137,1.29,-1.25,0.63,0.67,0.27,0.17
2021-11-10 11:9:43.5840,0.284,0.954,-0.139,0.49,-0.79,0.68,0.63,0.07,0.1
2021-11-10 11:9:43.5950,0.322,0.898,-0.143,-0.21,-0.13,0.66,0.57,-0.32,0.07
2021-11-10 11:9:43.6050,0.352,0.866,-0.155,-0.97,0.88,0.64,0.57,-0.32,0.07
2021-11-10 11:9:43.6140,0.377,0.848,-0.17,-0.97,0.88,0.64,0.52,-0.52,0.06
2021-11-10 11:9:43.6250,0.38,0.846,-0.172,-1.25,1.1,0.75,0.41,-0.85,0.0
2021-11-10 11:9:43.6340,0.356,0.847,-0.168,-1.38,1.17,0.76,0.41,-0.85,0.0
2021-11-10 11:9:43.6440,0.32,0.848,-0.161,-1.24,1.15,0.66,0.34,-0.96,-0.04
2021-11-10 11:9:43.6540,0.281,0.855,-0.156,-0.93,1.16,0.56,0.21,-1.09,-0.13
2021-11-10 11:9:43.6640,0.241,0.864,-0.151,-0.59,1.1,0.46,0.21,-1.09,-0.13
2021-11-10 11:9:43.6750,0.186,0.845,-0.141,-0.23,1.01,0.36,0.15,-1.06,-0.15
2021-11-10 11:9:43.6840,0.146,0.83,-0.152,0.23,1.08,0.25,0.12,-1.0,-0.11
2021-11-10 11:9:43.6930,0.136,0.835,-0.172,0.71,1.31,0.22,0.11,-0.87,-0.06
2021-11-10 11:9:43.7040,0.143,0.834,-0.172,0.9,1.28,0.39,0.11,-0.87,-0.06
2021-11-10 11:9:43.7130,0.14,0.825,-0.174,0.85,1.27,0.45,0.11,-0.77,-0.05
2021-11-10 11:9:43.7240,0.146,0.811,-0.2,0.81,1.32,0.39,0.08,-0.67,-0.02
2021-11-10 11:9:43.7340,0.147,0.798,-0.223,0.81,1.47,0.54,0.08,-0.67,-0.02
